submission_id;NAI_type;age;answerChoice;answerPolarity;comment;comments;condition;contextSentence;contextType;controlCorrect;controlResponse;education;experiment_duration;experiment_end_time;experiment_start_time;gender;indirectAnswer;informationStatus;itemID;itemName;languages;participantQuestion;polarQuestion;prolific_pid;prolific_session_id;prolific_study_id;rating;responseTime;trialNum
3945;NA;31;NA;NA;NA;;control;NA;NA;TRUE;Baking cake and pastries;Graduated College;676842;1776675766119;1776675089277;female;NA;NA;c2;baking;English;NA;NA;69d76f04f4bfe448e73e73dc;69e5e90d2bec70977a149983;69e5297ed748f0b4dc9f5f71;NA;4442;0
3945;NA;31;NA;NA;;;control;“I mostly bake cakes and pastries.”;NA;NA;NA;Graduated College;676842;1776675766119;1776675089277;female;“They all end up with my family and friends.”;NA;c2;baking;English;“What do you like to bake?”;“Do you sell any of your baked goods?”;69d76f04f4bfe448e73e73dc;69e5e90d2bec70977a149983;69e5297ed748f0b4dc9f5f71;1;16161;0
3945;NA;31;“They’re lucky to get them for free, then!”;negative;;;control;NA;NA;NA;NA;Graduated College;676842;1776675766119;1776675089277;female;NA;NA;c2;baking;English;NA;NA;69d76f04f4bfe448e73e73dc;69e5e90d2bec70977a149983;69e5297ed748f0b4dc9f5f71;NA;23429;NA
3945;too;31;NA;NA;;;8;“I always enjoy going to concerts with my friends who like rock concerts too!” ;negative ;NA;NA;Graduated College;676842;1776675766119;1776675089277;female;“It's a string quartet.”;never-at-issue;6;concerts;English;“What kind of concerts do you like?”;“Are you going to the concert in the town hall on Saturday?”;69d76f04f4bfe448e73e73dc;69e5e90d2bec70977a149983;69e5297ed748f0b4dc9f5f71;1;15605;1
3945;NA;31;“Ah, string quartets aren’t really for me either.”;negative;;;8;NA;NA;NA;NA;Graduated College;676842;1776675766119;1776675089277;female;NA;NA;6;concerts;English;NA;NA;69d76f04f4bfe448e73e73dc;69e5e90d2bec70977a149983;69e5297ed748f0b4dc9f5f71;NA;11202;NA
3945;NA;31;NA;NA;;;6;“As a huge fan of the headliner, I definitely have heard of it!”;negative;NA;NA;Graduated College;676842;1776675766119;1776675089277;female;“Friday is the band-only soundcheck day.”;no-longer-at-issue;4;festivals;English;“Have you heard of the music festival this weekend?”;“Are you going to the festival on Friday?” ;69d76f04f4bfe448e73e73dc;69e5e90d2bec70977a149983;69e5297ed748f0b4dc9f5f71;1;66396;2
3945;NA;31;“Right, I forgot it’s just the band soundcheck that day.”;neutral;;;6;NA;NA;NA;NA;Graduated College;676842;1776675766119;1776675089277;female;NA;NA;4;festivals;English;NA;NA;69d76f04f4bfe448e73e73dc;69e5e90d2bec70977a149983;69e5297ed748f0b4dc9f5f71;NA;16176;NA
3945;NA;31;NA;NA;;;4;“I usually look for something I can finish in a day.”;negative;NA;NA;Graduated College;676842;1776675766119;1776675089277;female;“It’s 600 pages long.”;at-issue-implicit ;7;books;English;“What kind of books do you like to read?”;“Have you read the new book that just came out?”;69d76f04f4bfe448e73e73dc;69e5e90d2bec70977a149983;69e5297ed748f0b4dc9f5f71;1;14371;3
3945;NA;31;“Oh wow, that’s quite a long book.”;neutral;;;4;NA;NA;NA;NA;Graduated College;676842;1776675766119;1776675089277;female;NA;NA;7;books;English;NA;NA;69d76f04f4bfe448e73e73dc;69e5e90d2bec70977a149983;69e5297ed748f0b4dc9f5f71;NA;9454;NA
3945;NA;31;NA;NA;NA;;control;NA;NA;TRUE;Tap dancing;Graduated College;676842;1776675766119;1776675089277;female;NA;NA;c6;dancing;English;NA;NA;69d76f04f4bfe448e73e73dc;69e5e90d2bec70977a149983;69e5297ed748f0b4dc9f5f71;NA;1868;4
3945;NA;31;NA;NA;;;control;“I do tap dance every single Friday.”;NA;NA;NA;Graduated College;676842;1776675766119;1776675089277;female;“Last winter we did one at our local theatre.”;NA;c6;dancing;English;“What kind of dancing do you do?”;“Wow, do you ever do performances?”;69d76f04f4bfe448e73e73dc;69e5e90d2bec70977a149983;69e5297ed748f0b4dc9f5f71;7;23159;4
3945;NA;31;“That’s amazing — performing on stage must be so exciting.”;positive;;;control;NA;NA;NA;NA;Graduated College;676842;1776675766119;1776675089277;female;NA;NA;c6;dancing;English;NA;NA;69d76f04f4bfe448e73e73dc;69e5e90d2bec70977a149983;69e5297ed748f0b4dc9f5f71;NA;7245;NA
3945;NA;31;NA;NA;;;2;“I'm a bargain hunter.”;negative;NA;NA;Graduated College;676842;1776675766119;1776675089277;female;“It has very expensive paintings.”;at-issue-explicit;8;antique shopping;English;“What kind of antique shopping do you like to do?”;“Do you like the new antique store in town?”;69d76f04f4bfe448e73e73dc;69e5e90d2bec70977a149983;69e5297ed748f0b4dc9f5f71;1;13917;5
3945;NA;31;“Ah, if it’s all expensive paintings, it’s not for me either then.”;negative;;;2;NA;NA;NA;NA;Graduated College;676842;1776675766119;1776675089277;female;NA;NA;8;antique shopping;English;NA;NA;69d76f04f4bfe448e73e73dc;69e5e90d2bec70977a149983;69e5297ed748f0b4dc9f5f71;NA;25332;NA
3945;NA;31;NA;NA;;;5;“As a marathon runner, I love exploring new trails in nature.”;positive;NA;NA;Graduated College;676842;1776675766119;1776675089277;female;“It’s a marathon.”;no-longer-at-issue;3;running;English;“What kind of running do you do?”;“Will you participate in the city run this weekend?”;69d76f04f4bfe448e73e73dc;69e5e90d2bec70977a149983;69e5297ed748f0b4dc9f5f71;7;8402;6
3945;NA;31;“Oh wow, that’s a big event. Maybe I’ll come by and watch!”;neutral;;;5;NA;NA;NA;NA;Graduated College;676842;1776675766119;1776675089277;female;NA;NA;3;running;English;NA;NA;69d76f04f4bfe448e73e73dc;69e5e90d2bec70977a149983;69e5297ed748f0b4dc9f5f71;NA;8986;NA
3945;NA;31;NA;NA;NA;;control;NA;NA;TRUE;Hating flying;Graduated College;676842;1776675766119;1776675089277;female;NA;NA;c9;travel;English;NA;NA;69d76f04f4bfe448e73e73dc;69e5e90d2bec70977a149983;69e5297ed748f0b4dc9f5f71;NA;1824;7
3945;NA;31;NA;NA;;;control;“I really hate flying.”;NA;NA;NA;Graduated College;676842;1776675766119;1776675089277;female;“I mainly drive myself.” ;NA;c9;travel;English;“What is your favourite mode of transport for travelling?”;“Do you take the train then instead?”;69d76f04f4bfe448e73e73dc;69e5e90d2bec70977a149983;69e5297ed748f0b4dc9f5f71;1;9230;7
3945;NA;31;“I honestly enjoy both train and car rides a lot.” ;neutral;;;control;NA;NA;NA;NA;Graduated College;676842;1776675766119;1776675089277;female;NA;NA;c9;travel;English;NA;NA;69d76f04f4bfe448e73e73dc;69e5e90d2bec70977a149983;69e5297ed748f0b4dc9f5f71;NA;11084;NA
3945;NA;31;NA;NA;;;3;“I quite like to get there before it gets too busy.”;positive;NA;NA;Graduated College;676842;1776675766119;1776675089277;female;“It starts at 7am.”;at-issue-implicit;9;the gym;English;“When do you usually go to the gym?”;“Do you usually go to the gym’s pilates class?”;69d76f04f4bfe448e73e73dc;69e5e90d2bec70977a149983;69e5297ed748f0b4dc9f5f71;7;10756;8
3945;NA;31;“Nice, early classes like that are great—I’d go regularly too!”;positive;;;3;NA;NA;NA;NA;Graduated College;676842;1776675766119;1776675089277;female;NA;NA;9;the gym;English;NA;NA;69d76f04f4bfe448e73e73dc;69e5e90d2bec70977a149983;69e5297ed748f0b4dc9f5f71;NA;6110;NA
3945;too;31;NA;NA;;;7;“I love the food my friends who love spicy food too are cooking.”;positive;NA;NA;Graduated College;676842;1776675766119;1776675089277;female;“Their food is meant to be really spicy.”;never-at-issue;10;food;English;“What kinds of food do you like the most?”;“Are you going to try the new restaurant in town?”;69d76f04f4bfe448e73e73dc;69e5e90d2bec70977a149983;69e5297ed748f0b4dc9f5f71;7;6991;9
3945;NA;31;“Nice, I love spicy food as well—I’d definitely want to try it!”;positive;;;7;NA;NA;NA;NA;Graduated College;676842;1776675766119;1776675089277;female;NA;NA;10;food;English;NA;NA;69d76f04f4bfe448e73e73dc;69e5e90d2bec70977a149983;69e5297ed748f0b4dc9f5f71;NA;7901;NA
3945;NA;31;NA;NA;;;1;“I’m a surfer.”;positive;NA;NA;Graduated College;676842;1776675766119;1776675089277;female;“It’s going to be windy.”;at-issue-explicit;1;the beach;English;“What do you like to do at the beach?”;“Will you be at the beach tomorrow?”;69d76f04f4bfe448e73e73dc;69e5e90d2bec70977a149983;69e5297ed748f0b4dc9f5f71;1;10538;10
3945;NA;31;“Ah, yeah, with that wind I wouldn’t find the beach pleasant either.”;negative;;;1;NA;NA;NA;NA;Graduated College;676842;1776675766119;1776675089277;female;NA;NA;1;the beach;English;NA;NA;69d76f04f4bfe448e73e73dc;69e5e90d2bec70977a149983;69e5297ed748f0b4dc9f5f71;NA;10644;NA
3946;NA;27;NA;NA;NA;I enjoyed completing this survey ;control;NA;NA;TRUE;Baking cake and pastries;Higher degree;730488;1776675828681;1776675098193;female;NA;NA;c2;baking;English ;NA;NA;69d5e9bc91feeaa37fc2899c;69e5e9155d2038852aa93a5f;69e5297ed748f0b4dc9f5f71;NA;6697;0
3946;NA;27;NA;NA;Everything was clear;I enjoyed completing this survey ;control;“I mostly bake cakes and pastries.”;NA;NA;NA;Higher degree;730488;1776675828681;1776675098193;female;“They all end up with my family and friends.”;NA;c2;baking;English ;“What do you like to bake?”;“Do you sell any of your baked goods?”;69d5e9bc91feeaa37fc2899c;69e5e9155d2038852aa93a5f;69e5297ed748f0b4dc9f5f71;3;34547;0
3946;NA;27;“Oh, do your friends and family have to pay for them?”;neutral;;I enjoyed completing this survey ;control;NA;NA;NA;NA;Higher degree;730488;1776675828681;1776675098193;female;NA;NA;c2;baking;English ;NA;NA;69d5e9bc91feeaa37fc2899c;69e5e9155d2038852aa93a5f;69e5297ed748f0b4dc9f5f71;NA;18699;NA
3946;NA;27;NA;NA;Everything is clear ;I enjoyed completing this survey ;6;“As a sunbather, I spend a lot of time there.”;negative;NA;NA;Higher degree;730488;1776675828681;1776675098193;female;“It’s going to be windy.”;no-longer-at-issue;1;the beach;English ;“What do you like to do at the beach?”;“Will you be at the beach tomorrow?”;69d5e9bc91feeaa37fc2899c;69e5e9155d2038852aa93a5f;69e5297ed748f0b4dc9f5f71;1;16443;1
3946;NA;27;“Ah, yeah, with that wind I wouldn’t find the beach pleasant either.”;negative;;I enjoyed completing this survey ;6;NA;NA;NA;NA;Higher degree;730488;1776675828681;1776675098193;female;NA;NA;1;the beach;English ;NA;NA;69d5e9bc91feeaa37fc2899c;69e5e9155d2038852aa93a5f;69e5297ed748f0b4dc9f5f71;NA;15295;NA
3946;NA;27;NA;NA;Very clear ;I enjoyed completing this survey ;1;“I like all classical concerts.”;positive;NA;NA;Higher degree;730488;1776675828681;1776675098193;female;“It's a string quartet.”;at-issue-explicit;6;concerts;English ;“What kind of concerts do you like?”;“Are you going to the concert in the town hall on Saturday?”;69d5e9bc91feeaa37fc2899c;69e5e9155d2038852aa93a5f;69e5297ed748f0b4dc9f5f71;4;14660;2
3946;NA;27;“Ah, string quartets aren’t really for me either.”;negative;;I enjoyed completing this survey ;1;NA;NA;NA;NA;Higher degree;730488;1776675828681;1776675098193;female;NA;NA;6;concerts;English ;NA;NA;69d5e9bc91feeaa37fc2899c;69e5e9155d2038852aa93a5f;69e5297ed748f0b4dc9f5f71;NA;11339;NA
3946;NA;27;NA;NA;Very clear ;I enjoyed completing this survey ;4;“I’ve been listening to the headliner nonstop lately.”;negative;NA;NA;Higher degree;730488;1776675828681;1776675098193;female;“Friday is the band-only soundcheck day.”;at-issue-implicit ;4;festivals;English ;“Have you heard of the music festival this weekend?”;“Are you going to the festival on Friday?” ;69d5e9bc91feeaa37fc2899c;69e5e9155d2038852aa93a5f;69e5297ed748f0b4dc9f5f71;1;13862;3
3946;NA;27;“Ah, if it’s band-only that day, then I guess I won’t be there on Friday either.”;negative;;I enjoyed completing this survey ;4;NA;NA;NA;NA;Higher degree;730488;1776675828681;1776675098193;female;NA;NA;4;festivals;English ;NA;NA;69d5e9bc91feeaa37fc2899c;69e5e9155d2038852aa93a5f;69e5297ed748f0b4dc9f5f71;NA;19823;NA
3946;NA;27;NA;NA;NA;I enjoyed completing this survey ;control;NA;NA;TRUE;Tap dancing;Higher degree;730488;1776675828681;1776675098193;female;NA;NA;c6;dancing;English ;NA;NA;69d5e9bc91feeaa37fc2899c;69e5e9155d2038852aa93a5f;69e5297ed748f0b4dc9f5f71;NA;4450;4
3946;NA;27;NA;NA;Very clear ;I enjoyed completing this survey ;control;“I do tap dance every single Friday.”;NA;NA;NA;Higher degree;730488;1776675828681;1776675098193;female;“Last winter we did one at our local theatre.”;NA;c6;dancing;English ;“What kind of dancing do you do?”;“Wow, do you ever do performances?”;69d5e9bc91feeaa37fc2899c;69e5e9155d2038852aa93a5f;69e5297ed748f0b4dc9f5f71;1;13100;4
3946;NA;27;“That’s amazing — performing on stage must be so exciting.”;positive;;I enjoyed completing this survey ;control;NA;NA;NA;NA;Higher degree;730488;1776675828681;1776675098193;female;NA;NA;c6;dancing;English ;NA;NA;69d5e9bc91feeaa37fc2899c;69e5e9155d2038852aa93a5f;69e5297ed748f0b4dc9f5f71;NA;12492;NA
3946;NA;27;NA;NA;Very clear ;I enjoyed completing this survey ;5;“As a chili enthusiast, I’m love trying new foods.”;positive;NA;NA;Higher degree;730488;1776675828681;1776675098193;female;“Their food is meant to be really spicy.”;no-longer-at-issue;10;food;English ;“What kinds of food do you like the most?”;“Are you going to try the new restaurant in town?”;69d5e9bc91feeaa37fc2899c;69e5e9155d2038852aa93a5f;69e5297ed748f0b4dc9f5f71;2;22595;5
3946;NA;27;“Ah, super spicy food? Yeah, that would definitely put me off too.”;negative;;I enjoyed completing this survey ;5;NA;NA;NA;NA;Higher degree;730488;1776675828681;1776675098193;female;NA;NA;10;food;English ;NA;NA;69d5e9bc91feeaa37fc2899c;69e5e9155d2038852aa93a5f;69e5297ed748f0b4dc9f5f71;NA;15703;NA
3946;like me;27;NA;NA;Clear;I enjoyed completing this survey ;7;“Early birds like me love to get a workout in every day.”;positive;NA;NA;Higher degree;730488;1776675828681;1776675098193;female;“It starts at 7am.”;never-at-issue;9;the gym;English ;“When do you usually go to the gym?”;“Do you usually go to the gym’s pilates class?”;69d5e9bc91feeaa37fc2899c;69e5e9155d2038852aa93a5f;69e5297ed748f0b4dc9f5f71;4;15257;6
3946;NA;27;“Nice, early classes like that are great—I’d go regularly too!”;positive;;I enjoyed completing this survey ;7;NA;NA;NA;NA;Higher degree;730488;1776675828681;1776675098193;female;NA;NA;9;the gym;English ;NA;NA;69d5e9bc91feeaa37fc2899c;69e5e9155d2038852aa93a5f;69e5297ed748f0b4dc9f5f71;NA;12817;NA
3946;NA;27;NA;NA;NA;I enjoyed completing this survey ;control;NA;NA;TRUE;Hating flying;Higher degree;730488;1776675828681;1776675098193;female;NA;NA;c9;travel;English ;NA;NA;69d5e9bc91feeaa37fc2899c;69e5e9155d2038852aa93a5f;69e5297ed748f0b4dc9f5f71;NA;10000;7
3946;NA;27;NA;NA;It is clear;I enjoyed completing this survey ;control;“I really hate flying.”;NA;NA;NA;Higher degree;730488;1776675828681;1776675098193;female;“I mainly drive myself.” ;NA;c9;travel;English ;“What is your favourite mode of transport for travelling?”;“Do you take the train then instead?”;69d5e9bc91feeaa37fc2899c;69e5e9155d2038852aa93a5f;69e5297ed748f0b4dc9f5f71;2;18187;7
3946;NA;27;“I prefer driving as well!”;positive;;I enjoyed completing this survey ;control;NA;NA;NA;NA;Higher degree;730488;1776675828681;1776675098193;female;NA;NA;c9;travel;English ;NA;NA;69d5e9bc91feeaa37fc2899c;69e5e9155d2038852aa93a5f;69e5297ed748f0b4dc9f5f71;NA;14206;NA
3946;too;27;NA;NA;Clear;I enjoyed completing this survey ;8;“I'm in a book club with my friends who also love short books.” ;negative ;NA;NA;Higher degree;730488;1776675828681;1776675098193;female;“It’s 600 pages long.”;never-at-issue;7;books;English ;“What kind of books do you like to read?”;“Have you read the new book that just came out?”;69d5e9bc91feeaa37fc2899c;69e5e9155d2038852aa93a5f;69e5297ed748f0b4dc9f5f71;4;15993;8
3946;NA;27;“Oh wow, that’s quite a long book.”;neutral;;I enjoyed completing this survey ;8;NA;NA;NA;NA;Higher degree;730488;1776675828681;1776675098193;female;NA;NA;7;books;English ;NA;NA;69d5e9bc91feeaa37fc2899c;69e5e9155d2038852aa93a5f;69e5297ed748f0b4dc9f5f71;NA;8067;NA
3946;NA;27;NA;NA;Clear;I enjoyed completing this survey ;3;“I’ve been hunting for some Monets and Renoirs lately.”;positive;NA;NA;Higher degree;730488;1776675828681;1776675098193;female;“It has very expensive paintings.”;at-issue-implicit;8;antique shopping;English ;“What kind of antique shopping do you like to do?”;“Do you like the new antique store in town?”;69d5e9bc91feeaa37fc2899c;69e5e9155d2038852aa93a5f;69e5297ed748f0b4dc9f5f71;3;9595;9
3946;NA;27;“Perfect for you then! I’ve been meaning to check it out as well.”;positive;;I enjoyed completing this survey ;3;NA;NA;NA;NA;Higher degree;730488;1776675828681;1776675098193;female;NA;NA;8;antique shopping;English ;NA;NA;69d5e9bc91feeaa37fc2899c;69e5e9155d2038852aa93a5f;69e5297ed748f0b4dc9f5f71;NA;5574;NA
3946;NA;27;NA;NA;Clear;I enjoyed completing this survey ;2;“I’m a rock climber.”;negative;NA;NA;Higher degree;730488;1776675828681;1776675098193;female;“There’s lots of fresh snow.”;at-issue-explicit;2;the mountains;English ;“What do you love about the mountains?”;“Are you going to the mountains this week?”;69d5e9bc91feeaa37fc2899c;69e5e9155d2038852aa93a5f;69e5297ed748f0b4dc9f5f71;3;10980;10
3946;NA;27;“Perfect, fresh snow sounds great to me too —see you there!”;positive;;I enjoyed completing this survey ;2;NA;NA;NA;NA;Higher degree;730488;1776675828681;1776675098193;female;NA;NA;2;the mountains;English ;NA;NA;69d5e9bc91feeaa37fc2899c;69e5e9155d2038852aa93a5f;69e5297ed748f0b4dc9f5f71;NA;7583;NA
3949;NA;30;NA;NA;NA;n/a;control;NA;NA;TRUE;Baking cake and pastries;Higher degree;347823;1776676022392;1776675674569;female;NA;NA;c2;baking;english;NA;NA;69de3977bd460340bd46fede;69e5e8ae11308d96a985167b;69e5297ed748f0b4dc9f5f71;NA;2097;0
3949;NA;30;NA;NA;;n/a;control;“I mostly bake cakes and pastries.”;NA;NA;NA;Higher degree;347823;1776676022392;1776675674569;female;“They all end up with my family and friends.”;NA;c2;baking;english;“What do you like to bake?”;“Do you sell any of your baked goods?”;69de3977bd460340bd46fede;69e5e8ae11308d96a985167b;69e5297ed748f0b4dc9f5f71;1;15057;0
3949;NA;30;“Well, I would love to buy a pastry from you at some point!”;positive;;n/a;control;NA;NA;NA;NA;Higher degree;347823;1776676022392;1776675674569;female;NA;NA;c2;baking;english;NA;NA;69de3977bd460340bd46fede;69e5e8ae11308d96a985167b;69e5297ed748f0b4dc9f5f71;NA;15566;NA
3949;like me;30;NA;NA;;n/a;7;“Skiers like me love spending entire days there!”;positive;NA;NA;Higher degree;347823;1776676022392;1776675674569;female;“There’s lots of fresh snow.”;never-at-issue;2;the mountains;english;“What do you love about the mountains?”;“Are you going to the mountains this week?”;69de3977bd460340bd46fede;69e5e8ae11308d96a985167b;69e5297ed748f0b4dc9f5f71;3;17458;1
3949;NA;30;“True, it’s meant to snow that day, I forgot about that!”;neutral;;n/a;7;NA;NA;NA;NA;Higher degree;347823;1776676022392;1776675674569;female;NA;NA;2;the mountains;english;NA;NA;69de3977bd460340bd46fede;69e5e8ae11308d96a985167b;69e5297ed748f0b4dc9f5f71;NA;7190;NA
3949;NA;30;NA;NA;;n/a;2;“I'm a bargain hunter.”;negative;NA;NA;Higher degree;347823;1776676022392;1776675674569;female;“It has very expensive paintings.”;at-issue-explicit;8;antique shopping;english;“What kind of antique shopping do you like to do?”;“Do you like the new antique store in town?”;69de3977bd460340bd46fede;69e5e8ae11308d96a985167b;69e5297ed748f0b4dc9f5f71;4;11706;2
3949;NA;30;“Well, if you don’t think they are too expensive, I’d love to go there together sometime!” ;neutral;;n/a;2;NA;NA;NA;NA;Higher degree;347823;1776676022392;1776675674569;female;NA;NA;8;antique shopping;english;NA;NA;69de3977bd460340bd46fede;69e5e8ae11308d96a985167b;69e5297ed748f0b4dc9f5f71;NA;7289;NA
3949;too;30;NA;NA;;n/a;8;“I love the food my friends who can’t handle spicy food either are cooking.”;negative ;NA;NA;Higher degree;347823;1776676022392;1776675674569;female;“Their food is meant to be really spicy.”;never-at-issue;10;food;english;“What kinds of food do you like the most?”;“Are you going to try the new restaurant in town?”;69de3977bd460340bd46fede;69e5e8ae11308d96a985167b;69e5297ed748f0b4dc9f5f71;6;7796;3
3949;NA;30;“Nice, I love spicy food as well—I’d definitely want to try it!”;positive;;n/a;8;NA;NA;NA;NA;Higher degree;347823;1776676022392;1776675674569;female;NA;NA;10;food;english;NA;NA;69de3977bd460340bd46fede;69e5e8ae11308d96a985167b;69e5297ed748f0b4dc9f5f71;NA;3397;NA
3949;NA;30;NA;NA;NA;n/a;control;NA;NA;TRUE;Doing portrait photography;Higher degree;347823;1776676022392;1776675674569;female;NA;NA;c4;photography;english;NA;NA;69de3977bd460340bd46fede;69e5e8ae11308d96a985167b;69e5297ed748f0b4dc9f5f71;NA;3214;4
3949;NA;30;NA;NA;;n/a;control;“I mainly do portrait photography.”;NA;NA;NA;Higher degree;347823;1776676022392;1776675674569;female;“So far no one has paid me for it.”;NA;c4;photography;english;“What sort of photography are you into?”;“Do you do photography professionally?”;69de3977bd460340bd46fede;69e5e8ae11308d96a985167b;69e5297ed748f0b4dc9f5f71;1;6495;4
3949;NA;30;“Well, maybe one day they will start paying you for it!”;positive;;n/a;control;NA;NA;NA;NA;Higher degree;347823;1776676022392;1776675674569;female;NA;NA;c4;photography;english;NA;NA;69de3977bd460340bd46fede;69e5e8ae11308d96a985167b;69e5297ed748f0b4dc9f5f71;NA;9409;NA
3949;NA;30;NA;NA;;n/a;5;“As a surfer, I spend a lot of time there.”;positive;NA;NA;Higher degree;347823;1776676022392;1776675674569;female;“It’s going to be windy.”;no-longer-at-issue;1;the beach;english;“What do you like to do at the beach?”;“Will you be at the beach tomorrow?”;69de3977bd460340bd46fede;69e5e8ae11308d96a985167b;69e5297ed748f0b4dc9f5f71;1;8665;5
3949;NA;30;“Right, windy conditions can make a difference.”;neutral;;n/a;5;NA;NA;NA;NA;Higher degree;347823;1776676022392;1776675674569;female;NA;NA;1;the beach;english;NA;NA;69de3977bd460340bd46fede;69e5e8ae11308d96a985167b;69e5297ed748f0b4dc9f5f71;NA;4098;NA
3949;NA;30;NA;NA;;n/a;6;“As a night owl, I really enjoy going outside of the rush hours.”;negative;NA;NA;Higher degree;347823;1776676022392;1776675674569;female;“It starts at 7am.”;no-longer-at-issue;9;the gym;english;“When do you usually go to the gym?”;“Do you usually go to the gym’s pilates class?”;69de3977bd460340bd46fede;69e5e8ae11308d96a985167b;69e5297ed748f0b4dc9f5f71;5;4111;6
3949;NA;30;“Nice, early classes like that are great—I’d go regularly too!”;positive;;n/a;6;NA;NA;NA;NA;Higher degree;347823;1776676022392;1776675674569;female;NA;NA;9;the gym;english;NA;NA;69de3977bd460340bd46fede;69e5e8ae11308d96a985167b;69e5297ed748f0b4dc9f5f71;NA;2364;NA
3949;NA;30;NA;NA;NA;n/a;control;NA;NA;TRUE;Knitting sweaters;Higher degree;347823;1776676022392;1776675674569;female;NA;NA;c8;knitting;english;NA;NA;69de3977bd460340bd46fede;69e5e8ae11308d96a985167b;69e5297ed748f0b4dc9f5f71;NA;2151;7
3949;NA;30;NA;NA;;n/a;control;“I like to knit my own sweaters.”;NA;NA;NA;Higher degree;347823;1776676022392;1776675674569;female;“Almost every day in winter.”;NA;c8;knitting;english;“What kind of stuff do you like to knit?”;“Do you wear your own sweaters then?”;69de3977bd460340bd46fede;69e5e8ae11308d96a985167b;69e5297ed748f0b4dc9f5f71;7;6708;7
3949;NA;30;“Wow, it must be nice to wear something you made yourself.”;positive;;n/a;control;NA;NA;NA;NA;Higher degree;347823;1776676022392;1776675674569;female;NA;NA;c8;knitting;english;NA;NA;69de3977bd460340bd46fede;69e5e8ae11308d96a985167b;69e5297ed748f0b4dc9f5f71;NA;7333;NA
3949;NA;30;NA;NA;;n/a;3;“I was raised on Mozart and Chopin.” ;positive;NA;NA;Higher degree;347823;1776676022392;1776675674569;female;“It's a string quartet.”;at-issue-implicit;6;concerts;english;“What kind of concerts do you like?”;“Are you going to the concert in the town hall on Saturday?”;69de3977bd460340bd46fede;69e5e8ae11308d96a985167b;69e5297ed748f0b4dc9f5f71;5;5859;8
3949;NA;30;“Sounds lovely, I’ll come hear the quartet too!”;positive;;n/a;3;NA;NA;NA;NA;Higher degree;347823;1776676022392;1776675674569;female;NA;NA;6;concerts;english;NA;NA;69de3977bd460340bd46fede;69e5e8ae11308d96a985167b;69e5297ed748f0b4dc9f5f71;NA;1590;NA
3949;NA;30;NA;NA;;n/a;1;“I love reading really long novels.”;positive;NA;NA;Higher degree;347823;1776676022392;1776675674569;female;“It’s 600 pages long.”;at-issue-explicit;7;books;english;“What kind of books do you like to read?”;“Have you read the new book that just came out?”;69de3977bd460340bd46fede;69e5e8ae11308d96a985167b;69e5297ed748f0b4dc9f5f71;6;3926;9
3949;NA;30;“Nice, I’ve been meaning to read the book too!”;positive;;n/a;1;NA;NA;NA;NA;Higher degree;347823;1776676022392;1776675674569;female;NA;NA;7;books;english;NA;NA;69de3977bd460340bd46fede;69e5e8ae11308d96a985167b;69e5297ed748f0b4dc9f5f71;NA;1669;NA
3949;NA;30;NA;NA;;n/a;4;“I love the online games when I’m bored.”;negative;NA;NA;Higher degree;347823;1776676022392;1776675674569;female;“It’s a six-hour match format.”;at-issue-implicit ;5;chess;english;“What do you enjoy about playing chess?”;“Are you entering the tournament this weekend?”;69de3977bd460340bd46fede;69e5e8ae11308d96a985167b;69e5297ed748f0b4dc9f5f71;6;3533;10
3949;NA;30;“Well, I’m not a professional like you, but I might come to watch you play!”;positive;;n/a;4;NA;NA;NA;NA;Higher degree;347823;1776676022392;1776675674569;female;NA;NA;5;chess;english;NA;NA;69de3977bd460340bd46fede;69e5e8ae11308d96a985167b;69e5297ed748f0b4dc9f5f71;NA;4186;NA
3947;NA;56;NA;NA;NA;;control;NA;NA;TRUE;Growing vegetables;Higher degree;908415;1776675932499;1776675024084;male;NA;NA;c1;gardening;English;NA;NA;69ac4a8252f08f66b05aa859;69e5e8c384c486bcd0eda0cc;69e5297ed748f0b4dc9f5f71;NA;4252;0
3947;NA;56;NA;NA;;;control;“I grow my own vegetables.”;NA;NA;NA;Higher degree;908415;1776675932499;1776675024084;male;“I love to make vegetable soups with them.” ;NA;c1;gardening;English;“What kind of gardening do you like to do?”;“Do you cook using your own vegetables?”;69ac4a8252f08f66b05aa859;69e5e8c384c486bcd0eda0cc;69e5297ed748f0b4dc9f5f71;6;48530;0
3947;NA;56;“Wow, that's impressive!”;neutral;;;control;NA;NA;NA;NA;Higher degree;908415;1776675932499;1776675024084;male;NA;NA;c1;gardening;English;NA;NA;69ac4a8252f08f66b05aa859;69e5e8c384c486bcd0eda0cc;69e5297ed748f0b4dc9f5f71;NA;19979;NA
3947;too;56;NA;NA;;;8;“I always enjoy going to concerts with my friends who like rock concerts too!” ;negative ;NA;NA;Higher degree;908415;1776675932499;1776675024084;male;“It's a string quartet.”;never-at-issue;6;concerts;English;“What kind of concerts do you like?”;“Are you going to the concert in the town hall on Saturday?”;69ac4a8252f08f66b05aa859;69e5e8c384c486bcd0eda0cc;69e5297ed748f0b4dc9f5f71;3;111288;1
3947;NA;56;“Ah, string quartets aren’t really for me either.”;negative;;;8;NA;NA;NA;NA;Higher degree;908415;1776675932499;1776675024084;male;NA;NA;6;concerts;English;NA;NA;69ac4a8252f08f66b05aa859;69e5e8c384c486bcd0eda0cc;69e5297ed748f0b4dc9f5f71;NA;18028;NA
3947;NA;56;NA;NA;;;5;“As a skier, it’s my favourite place to be.”;positive;NA;NA;Higher degree;908415;1776675932499;1776675024084;male;“There’s lots of fresh snow.”;no-longer-at-issue;2;the mountains;English;“What do you love about the mountains?”;“Are you going to the mountains this week?”;69ac4a8252f08f66b05aa859;69e5e8c384c486bcd0eda0cc;69e5297ed748f0b4dc9f5f71;2;14521;2
3947;NA;56;“Ah, I’m no fan of snow either - maybe we’ll wait for it to melt first!”;negative;;;5;NA;NA;NA;NA;Higher degree;908415;1776675932499;1776675024084;male;NA;NA;2;the mountains;English;NA;NA;69ac4a8252f08f66b05aa859;69e5e8c384c486bcd0eda0cc;69e5297ed748f0b4dc9f5f71;NA;14333;NA
3947;NA;56;NA;NA;;;4;“I’ve been listening to the headliner nonstop lately.”;negative;NA;NA;Higher degree;908415;1776675932499;1776675024084;male;“Friday is the band-only soundcheck day.”;at-issue-implicit ;4;festivals;English;“Have you heard of the music festival this weekend?”;“Are you going to the festival on Friday?” ;69ac4a8252f08f66b05aa859;69e5e8c384c486bcd0eda0cc;69e5297ed748f0b4dc9f5f71;2;48859;3
3947;NA;56;“Ah, if it’s band-only that day, then I guess I won’t be there on Friday either.”;negative;;;4;NA;NA;NA;NA;Higher degree;908415;1776675932499;1776675024084;male;NA;NA;4;festivals;English;NA;NA;69ac4a8252f08f66b05aa859;69e5e8c384c486bcd0eda0cc;69e5297ed748f0b4dc9f5f71;NA;8347;NA
3947;NA;56;NA;NA;NA;;control;NA;NA;TRUE;Working on new software;Higher degree;908415;1776675932499;1776675024084;male;NA;NA;c5;coding;English;NA;NA;69ac4a8252f08f66b05aa859;69e5e8c384c486bcd0eda0cc;69e5297ed748f0b4dc9f5f71;NA;5346;4
3947;NA;56;NA;NA;;;control;“I spend a lot of time working on new software.”;NA;NA;NA;Higher degree;908415;1776675932499;1776675024084;male;“I have made a few apps before.”;NA;c5;coding;English;“What kind of coding do you like to do?”;“Do you ever make your own apps?”;69ac4a8252f08f66b05aa859;69e5e8c384c486bcd0eda0cc;69e5297ed748f0b4dc9f5f71;7;11879;4
3947;NA;56;“Really? What were the apps for?”;neutral;;;control;NA;NA;NA;NA;Higher degree;908415;1776675932499;1776675024084;male;NA;NA;c5;coding;English;NA;NA;69ac4a8252f08f66b05aa859;69e5e8c384c486bcd0eda0cc;69e5297ed748f0b4dc9f5f71;NA;8512;NA
3947;NA;56;NA;NA;;;1;“I’m a professional chess player.”;positive;NA;NA;Higher degree;908415;1776675932499;1776675024084;male;“It’s a six-hour match format.”;at-issue-explicit;5;chess;English;“What do you enjoy about playing chess?”;“Are you entering the tournament this weekend?”;69ac4a8252f08f66b05aa859;69e5e8c384c486bcd0eda0cc;69e5297ed748f0b4dc9f5f71;2;32191;5
3947;NA;56;“Ah, six hours is too long for me too —maybe another match then.”;negative;;;1;NA;NA;NA;NA;Higher degree;908415;1776675932499;1776675024084;male;NA;NA;5;chess;English;NA;NA;69ac4a8252f08f66b05aa859;69e5e8c384c486bcd0eda0cc;69e5297ed748f0b4dc9f5f71;NA;6435;NA
3947;like me;56;NA;NA;;;7;“Surfers like me are always at the beach.” ;positive;NA;NA;Higher degree;908415;1776675932499;1776675024084;male;“It’s going to be windy.”;never-at-issue;1;the beach;English;“What do you like to do at the beach?”;“Will you be at the beach tomorrow?”;69ac4a8252f08f66b05aa859;69e5e8c384c486bcd0eda0cc;69e5297ed748f0b4dc9f5f71;2;9690;6
3947;NA;56;“Ah, yeah, with that wind I wouldn’t find the beach pleasant either.”;negative;;;7;NA;NA;NA;NA;Higher degree;908415;1776675932499;1776675024084;male;NA;NA;1;the beach;English;NA;NA;69ac4a8252f08f66b05aa859;69e5e8c384c486bcd0eda0cc;69e5297ed748f0b4dc9f5f71;NA;5361;NA
3947;NA;56;NA;NA;NA;;control;NA;NA;TRUE;Hating flying;Higher degree;908415;1776675932499;1776675024084;male;NA;NA;c9;travel;English;NA;NA;69ac4a8252f08f66b05aa859;69e5e8c384c486bcd0eda0cc;69e5297ed748f0b4dc9f5f71;NA;4951;7
3947;NA;56;NA;NA;;;control;“I really hate flying.”;NA;NA;NA;Higher degree;908415;1776675932499;1776675024084;male;“I mainly drive myself.” ;NA;c9;travel;English;“What is your favourite mode of transport for travelling?”;“Do you take the train then instead?”;69ac4a8252f08f66b05aa859;69e5e8c384c486bcd0eda0cc;69e5297ed748f0b4dc9f5f71;3;14616;7
3947;NA;56;“I honestly enjoy both train and car rides a lot.” ;neutral;;;control;NA;NA;NA;NA;Higher degree;908415;1776675932499;1776675024084;male;NA;NA;c9;travel;English;NA;NA;69ac4a8252f08f66b05aa859;69e5e8c384c486bcd0eda0cc;69e5297ed748f0b4dc9f5f71;NA;6554;NA
3947;NA;56;NA;NA;;;6;“As someone who prefers short books, I love finding new releases to read.”;negative;NA;NA;Higher degree;908415;1776675932499;1776675024084;male;“It’s 600 pages long.”;no-longer-at-issue;7;books;English;“What kind of books do you like to read?”;“Have you read the new book that just came out?”;69ac4a8252f08f66b05aa859;69e5e8c384c486bcd0eda0cc;69e5297ed748f0b4dc9f5f71;2;14798;8
3947;NA;56;“Ah, 600 pages? Yeah, I think that’s too long for me as well.”;negative;;;6;NA;NA;NA;NA;Higher degree;908415;1776675932499;1776675024084;male;NA;NA;7;books;English;NA;NA;69ac4a8252f08f66b05aa859;69e5e8c384c486bcd0eda0cc;69e5297ed748f0b4dc9f5f71;NA;7418;NA
3947;NA;56;NA;NA;;;3;“I quite like to get there before it gets too busy.”;positive;NA;NA;Higher degree;908415;1776675932499;1776675024084;male;“It starts at 7am.”;at-issue-implicit;9;the gym;English;“When do you usually go to the gym?”;“Do you usually go to the gym’s pilates class?”;69ac4a8252f08f66b05aa859;69e5e8c384c486bcd0eda0cc;69e5297ed748f0b4dc9f5f71;6;9042;9
3947;NA;56;“Oh, I see—it’s an early class.”;neutral;;;3;NA;NA;NA;NA;Higher degree;908415;1776675932499;1776675024084;male;NA;NA;9;the gym;English;NA;NA;69ac4a8252f08f66b05aa859;69e5e8c384c486bcd0eda0cc;69e5297ed748f0b4dc9f5f71;NA;11450;NA
3947;NA;56;NA;NA;;;2;“I'm just a beginner.”;negative;NA;NA;Higher degree;908415;1776675932499;1776675024084;male;“It’s a marathon.”;at-issue-explicit;3;running;English;“What kind of running do you do?”;“Will you participate in the city run this weekend?”;69ac4a8252f08f66b05aa859;69e5e8c384c486bcd0eda0cc;69e5297ed748f0b4dc9f5f71;2;7923;10
3947;NA;56;“Ah, a full marathon? Yeah, that’s probably too difficult for me as well.”;negative;;;2;NA;NA;NA;NA;Higher degree;908415;1776675932499;1776675024084;male;NA;NA;3;running;English;NA;NA;69ac4a8252f08f66b05aa859;69e5e8c384c486bcd0eda0cc;69e5297ed748f0b4dc9f5f71;NA;5079;NA
3948;NA;;NA;NA;NA;;control;NA;NA;TRUE;Growing vegetables;Higher degree;848182;1776675960526;1776675112344;male;NA;NA;c1;gardening;English ;NA;NA;69d8dabcecbe2865242af4b7;69e5e913bfb7d13f0c259498;69e5297ed748f0b4dc9f5f71;NA;3246;0
3948;NA;;NA;NA;;;control;“I grow my own vegetables.”;NA;NA;NA;Higher degree;848182;1776675960526;1776675112344;male;“I love to make vegetable soups with them.” ;NA;c1;gardening;English ;“What kind of gardening do you like to do?”;“Do you cook using your own vegetables?”;69d8dabcecbe2865242af4b7;69e5e913bfb7d13f0c259498;69e5297ed748f0b4dc9f5f71;7;21097;0
3948;NA;;“Wow, that's impressive!”;neutral;;;control;NA;NA;NA;NA;Higher degree;848182;1776675960526;1776675112344;male;NA;NA;c1;gardening;English ;NA;NA;69d8dabcecbe2865242af4b7;69e5e913bfb7d13f0c259498;69e5297ed748f0b4dc9f5f71;NA;17407;NA
3948;NA;;NA;NA;;;4;“I love the online games when I’m bored.”;negative;NA;NA;Higher degree;848182;1776675960526;1776675112344;male;“It’s a six-hour match format.”;at-issue-implicit ;5;chess;English ;“What do you enjoy about playing chess?”;“Are you entering the tournament this weekend?”;69d8dabcecbe2865242af4b7;69e5e913bfb7d13f0c259498;69e5297ed748f0b4dc9f5f71;1;14112;1
3948;NA;;“Ah, six hours is too long for me too —maybe another match then.”;negative;;;4;NA;NA;NA;NA;Higher degree;848182;1776675960526;1776675112344;male;NA;NA;5;chess;English ;NA;NA;69d8dabcecbe2865242af4b7;69e5e913bfb7d13f0c259498;69e5297ed748f0b4dc9f5f71;NA;12399;NA
3948;like me;;NA;NA;;;7;“Early birds like me love to get a workout in every day.”;positive;NA;NA;Higher degree;848182;1776675960526;1776675112344;male;“It starts at 7am.”;never-at-issue;9;the gym;English ;“When do you usually go to the gym?”;“Do you usually go to the gym’s pilates class?”;69d8dabcecbe2865242af4b7;69e5e913bfb7d13f0c259498;69e5297ed748f0b4dc9f5f71;7;10032;2
3948;NA;;“Nice, early classes like that are great—I’d go regularly too!”;positive;;;7;NA;NA;NA;NA;Higher degree;848182;1776675960526;1776675112344;male;NA;NA;9;the gym;English ;NA;NA;69d8dabcecbe2865242af4b7;69e5e913bfb7d13f0c259498;69e5297ed748f0b4dc9f5f71;NA;8407;NA
3948;NA;;NA;NA;;;5;“As a classical concert enjoyer, I especially love concerts where I can discover new music.”;positive;NA;NA;Higher degree;848182;1776675960526;1776675112344;male;“It's a string quartet.”;no-longer-at-issue;6;concerts;English ;“What kind of concerts do you like?”;“Are you going to the concert in the town hall on Saturday?”;69d8dabcecbe2865242af4b7;69e5e913bfb7d13f0c259498;69e5297ed748f0b4dc9f5f71;1;8837;3
3948;NA;;“Oh, I didn’t realise it was a string quartet.”;neutral;;;5;NA;NA;NA;NA;Higher degree;848182;1776675960526;1776675112344;male;NA;NA;6;concerts;English ;NA;NA;69d8dabcecbe2865242af4b7;69e5e913bfb7d13f0c259498;69e5297ed748f0b4dc9f5f71;NA;10030;NA
3948;NA;;NA;NA;NA;;control;NA;NA;FALSE;Ballroom dancing;Higher degree;848182;1776675960526;1776675112344;male;NA;NA;c6;dancing;English ;NA;NA;69d8dabcecbe2865242af4b7;69e5e913bfb7d13f0c259498;69e5297ed748f0b4dc9f5f71;NA;15536;4
3948;NA;;NA;NA;;;control;“I do tap dance every single Friday.”;NA;NA;NA;Higher degree;848182;1776675960526;1776675112344;male;“Last winter we did one at our local theatre.”;NA;c6;dancing;English ;“What kind of dancing do you do?”;“Wow, do you ever do performances?”;69d8dabcecbe2865242af4b7;69e5e913bfb7d13f0c259498;69e5297ed748f0b4dc9f5f71;7;13831;4
3948;NA;;“That’s amazing — performing on stage must be so exciting.”;positive;;;control;NA;NA;NA;NA;Higher degree;848182;1776675960526;1776675112344;male;NA;NA;c6;dancing;English ;NA;NA;69d8dabcecbe2865242af4b7;69e5e913bfb7d13f0c259498;69e5297ed748f0b4dc9f5f71;NA;8418;NA
3948;too;;NA;NA;;;8;“I love the food my friends who can’t handle spicy food either are cooking.”;negative ;NA;NA;Higher degree;848182;1776675960526;1776675112344;male;“Their food is meant to be really spicy.”;never-at-issue;10;food;English ;“What kinds of food do you like the most?”;“Are you going to try the new restaurant in town?”;69d8dabcecbe2865242af4b7;69e5e913bfb7d13f0c259498;69e5297ed748f0b4dc9f5f71;7;7349;5
3948;NA;;“Nice, I love spicy food as well—I’d definitely want to try it!”;positive;;;8;NA;NA;NA;NA;Higher degree;848182;1776675960526;1776675112344;male;NA;NA;10;food;English ;NA;NA;69d8dabcecbe2865242af4b7;69e5e913bfb7d13f0c259498;69e5297ed748f0b4dc9f5f71;NA;7287;NA
3948;NA;;NA;NA;;;3;“I love running for as many hours as I can.”;positive;NA;NA;Higher degree;848182;1776675960526;1776675112344;male;“It’s a marathon.”;at-issue-implicit;3;running;English ;“What kind of running do you do?”;“Will you participate in the city run this weekend?”;69d8dabcecbe2865242af4b7;69e5e913bfb7d13f0c259498;69e5297ed748f0b4dc9f5f71;7;10482;6
3948;NA;;“Nice, I’ve always wanted to try a marathon as well!”;positive;;;3;NA;NA;NA;NA;Higher degree;848182;1776675960526;1776675112344;male;NA;NA;3;running;English ;NA;NA;69d8dabcecbe2865242af4b7;69e5e913bfb7d13f0c259498;69e5297ed748f0b4dc9f5f71;NA;3911;NA
3948;NA;;NA;NA;NA;;control;NA;NA;TRUE;Hating flying;Higher degree;848182;1776675960526;1776675112344;male;NA;NA;c9;travel;English ;NA;NA;69d8dabcecbe2865242af4b7;69e5e913bfb7d13f0c259498;69e5297ed748f0b4dc9f5f71;NA;2735;7
3948;NA;;NA;NA;;;control;“I really hate flying.”;NA;NA;NA;Higher degree;848182;1776675960526;1776675112344;male;“I mainly drive myself.” ;NA;c9;travel;English ;“What is your favourite mode of transport for travelling?”;“Do you take the train then instead?”;69d8dabcecbe2865242af4b7;69e5e913bfb7d13f0c259498;69e5297ed748f0b4dc9f5f71;1;11433;7
3948;NA;;“I prefer driving as well!”;positive;;;control;NA;NA;NA;NA;Higher degree;848182;1776675960526;1776675112344;male;NA;NA;c9;travel;English ;NA;NA;69d8dabcecbe2865242af4b7;69e5e913bfb7d13f0c259498;69e5297ed748f0b4dc9f5f71;NA;8804;NA
3948;NA;;NA;NA;;;2;“I prefer short books.”;negative;NA;NA;Higher degree;848182;1776675960526;1776675112344;male;“It’s 600 pages long.”;at-issue-explicit;7;books;English ;“What kind of books do you like to read?”;“Have you read the new book that just came out?”;69d8dabcecbe2865242af4b7;69e5e913bfb7d13f0c259498;69e5297ed748f0b4dc9f5f71;1;8349;8
3948;NA;;“Ah, 600 pages? Yeah, I think that’s too long for me as well.”;negative;;;2;NA;NA;NA;NA;Higher degree;848182;1776675960526;1776675112344;male;NA;NA;7;books;English ;NA;NA;69d8dabcecbe2865242af4b7;69e5e913bfb7d13f0c259498;69e5297ed748f0b4dc9f5f71;NA;6408;NA
3948;NA;;NA;NA;;;1;“I’m playing guitar in one of the bands performing there.”;positive;NA;NA;Higher degree;848182;1776675960526;1776675112344;male;“Friday is the band-only soundcheck day.”;at-issue-explicit;4;festivals;English ;“Have you heard of the music festival this weekend?”;“Are you going to the festival on Friday?” ;69d8dabcecbe2865242af4b7;69e5e913bfb7d13f0c259498;69e5297ed748f0b4dc9f5f71;7;5668;9
3948;NA;;“Well, I hope the rehearsal goes well! Sad that fans like me can’t be there too.”;positive;;;1;NA;NA;NA;NA;Higher degree;848182;1776675960526;1776675112344;male;NA;NA;4;festivals;English ;NA;NA;69d8dabcecbe2865242af4b7;69e5e913bfb7d13f0c259498;69e5297ed748f0b4dc9f5f71;NA;15594;NA
3948;NA;;NA;NA;;;6;“As a sunbather, I spend a lot of time there.”;negative;NA;NA;Higher degree;848182;1776675960526;1776675112344;male;“It’s going to be windy.”;no-longer-at-issue;1;the beach;English ;“What do you like to do at the beach?”;“Will you be at the beach tomorrow?”;69d8dabcecbe2865242af4b7;69e5e913bfb7d13f0c259498;69e5297ed748f0b4dc9f5f71;1;6034;10
3948;NA;;“Ah, yeah, with that wind I wouldn’t find the beach pleasant either.”;negative;;;6;NA;NA;NA;NA;Higher degree;848182;1776675960526;1776675112344;male;NA;NA;1;the beach;English ;NA;NA;69d8dabcecbe2865242af4b7;69e5e913bfb7d13f0c259498;69e5297ed748f0b4dc9f5f71;NA;11817;NA
3910;NA;20;NA;NA;NA;;control;NA;NA;TRUE;Painting with watercolours;Graduated High-school;700159;1776671773505;1776671073346;female;NA;NA;c3;painting;English, Punjabi;NA;NA;69740e0f44d57fec690581aa;69e5d921b4238ba5147d02ea;69e5297ed748f0b4dc9f5f71;NA;5559;0
3910;NA;20;NA;NA;;;control;“I like to paint with watercolours.”;NA;NA;NA;Graduated High-school;700159;1776671773505;1776671073346;female;“I usually paint landscapes.”;NA;c3;painting;English, Punjabi;“What colours do you paint with?”;“Do you paint portraits?”;69740e0f44d57fec690581aa;69e5d921b4238ba5147d02ea;69e5297ed748f0b4dc9f5f71;2;41906;0
3910;NA;20;“Oh cool, landscapes can be very peaceful.”;neutral;;;control;NA;NA;NA;NA;Graduated High-school;700159;1776671773505;1776671073346;female;NA;NA;c3;painting;English, Punjabi;NA;NA;69740e0f44d57fec690581aa;69e5d921b4238ba5147d02ea;69e5297ed748f0b4dc9f5f71;NA;15575;NA
3910;NA;20;NA;NA;;;5;“As an early bird, I really enjoy going outside of the rush hours.”;positive;NA;NA;Graduated High-school;700159;1776671773505;1776671073346;female;“It starts at 7am.”;no-longer-at-issue;9;the gym;English, Punjabi;“When do you usually go to the gym?”;“Do you usually go to the gym’s pilates class?”;69740e0f44d57fec690581aa;69e5d921b4238ba5147d02ea;69e5297ed748f0b4dc9f5f71;5;36320;1
3910;NA;20;“Oh, I see—it’s an early class.”;neutral;;;5;NA;NA;NA;NA;Graduated High-school;700159;1776671773505;1776671073346;female;NA;NA;9;the gym;English, Punjabi;NA;NA;69740e0f44d57fec690581aa;69e5d921b4238ba5147d02ea;69e5297ed748f0b4dc9f5f71;NA;14185;NA
3910;like me;20;NA;NA;;;8;“Sunbathers like me are always at the beach.”;negative ;NA;NA;Graduated High-school;700159;1776671773505;1776671073346;female;“It’s going to be windy.”;never-at-issue;1;the beach;English, Punjabi;“What do you like to do at the beach?”;“Will you be at the beach tomorrow?”;69740e0f44d57fec690581aa;69e5d921b4238ba5147d02ea;69e5297ed748f0b4dc9f5f71;2;16760;2
3910;NA;20;“Ah, yeah, with that wind I wouldn’t find the beach pleasant either.”;negative;;;8;NA;NA;NA;NA;Graduated High-school;700159;1776671773505;1776671073346;female;NA;NA;1;the beach;English, Punjabi;NA;NA;69740e0f44d57fec690581aa;69e5d921b4238ba5147d02ea;69e5297ed748f0b4dc9f5f71;NA;8438;NA
3910;too;20;NA;NA;;;7;“I love running with my friends who are also marathon runners!”;positive;NA;NA;Graduated High-school;700159;1776671773505;1776671073346;female;“It’s a marathon.”;never-at-issue;3;running;English, Punjabi;“What kind of running do you do?”;“Will you participate in the city run this weekend?”;69740e0f44d57fec690581aa;69e5d921b4238ba5147d02ea;69e5297ed748f0b4dc9f5f71;5;47591;3
3910;NA;20;“Nice, I’ve always wanted to try a marathon as well!”;positive;;;7;NA;NA;NA;NA;Graduated High-school;700159;1776671773505;1776671073346;female;NA;NA;3;running;English, Punjabi;NA;NA;69740e0f44d57fec690581aa;69e5d921b4238ba5147d02ea;69e5297ed748f0b4dc9f5f71;NA;7953;NA
3910;NA;20;NA;NA;NA;;control;NA;NA;TRUE;Tap dancing;Graduated High-school;700159;1776671773505;1776671073346;female;NA;NA;c6;dancing;English, Punjabi;NA;NA;69740e0f44d57fec690581aa;69e5d921b4238ba5147d02ea;69e5297ed748f0b4dc9f5f71;NA;4012;4
3910;NA;20;NA;NA;;;control;“I do tap dance every single Friday.”;NA;NA;NA;Graduated High-school;700159;1776671773505;1776671073346;female;“Last winter we did one at our local theatre.”;NA;c6;dancing;English, Punjabi;“What kind of dancing do you do?”;“Wow, do you ever do performances?”;69740e0f44d57fec690581aa;69e5d921b4238ba5147d02ea;69e5297ed748f0b4dc9f5f71;7;11019;4
3910;NA;20;“That’s amazing — performing on stage must be so exciting.”;positive;;;control;NA;NA;NA;NA;Graduated High-school;700159;1776671773505;1776671073346;female;NA;NA;c6;dancing;English, Punjabi;NA;NA;69740e0f44d57fec690581aa;69e5d921b4238ba5147d02ea;69e5297ed748f0b4dc9f5f71;NA;5027;NA
3910;NA;20;NA;NA;;;4;“I was raised on Led Zeppelin and AC/DC.”;negative;NA;NA;Graduated High-school;700159;1776671773505;1776671073346;female;“It's a string quartet.”;at-issue-implicit ;6;concerts;English, Punjabi;“What kind of concerts do you like?”;“Are you going to the concert in the town hall on Saturday?”;69740e0f44d57fec690581aa;69e5d921b4238ba5147d02ea;69e5297ed748f0b4dc9f5f71;3;13835;5
3910;NA;20;“Oh, I didn’t realise it was a string quartet.”;neutral;;;4;NA;NA;NA;NA;Graduated High-school;700159;1776671773505;1776671073346;female;NA;NA;6;concerts;English, Punjabi;NA;NA;69740e0f44d57fec690581aa;69e5d921b4238ba5147d02ea;69e5297ed748f0b4dc9f5f71;NA;5087;NA
3910;NA;20;NA;NA;;;6;“Although I’m someone who can’t handle spicy food, I love trying new foods.”;negative;NA;NA;Graduated High-school;700159;1776671773505;1776671073346;female;“Their food is meant to be really spicy.”;no-longer-at-issue;10;food;English, Punjabi;“What kinds of food do you like the most?”;“Are you going to try the new restaurant in town?”;69740e0f44d57fec690581aa;69e5d921b4238ba5147d02ea;69e5297ed748f0b4dc9f5f71;4;25165;6
3910;NA;20;“Right, I forgot that it's meant to be really spicy.”;neutral;;;6;NA;NA;NA;NA;Graduated High-school;700159;1776671773505;1776671073346;female;NA;NA;10;food;English, Punjabi;NA;NA;69740e0f44d57fec690581aa;69e5d921b4238ba5147d02ea;69e5297ed748f0b4dc9f5f71;NA;8301;NA
3910;NA;20;NA;NA;NA;;control;NA;NA;TRUE;Knitting sweaters;Graduated High-school;700159;1776671773505;1776671073346;female;NA;NA;c8;knitting;English, Punjabi;NA;NA;69740e0f44d57fec690581aa;69e5d921b4238ba5147d02ea;69e5297ed748f0b4dc9f5f71;NA;2978;7
3910;NA;20;NA;NA;;;control;“I like to knit my own sweaters.”;NA;NA;NA;Graduated High-school;700159;1776671773505;1776671073346;female;“Almost every day in winter.”;NA;c8;knitting;English, Punjabi;“What kind of stuff do you like to knit?”;“Do you wear your own sweaters then?”;69740e0f44d57fec690581aa;69e5d921b4238ba5147d02ea;69e5297ed748f0b4dc9f5f71;7;7751;7
3910;NA;20;“That's impressive!”;neutral;;;control;NA;NA;NA;NA;Graduated High-school;700159;1776671773505;1776671073346;female;NA;NA;c8;knitting;English, Punjabi;NA;NA;69740e0f44d57fec690581aa;69e5d921b4238ba5147d02ea;69e5297ed748f0b4dc9f5f71;NA;5807;NA
3910;NA;20;NA;NA;;;1;“I love reading really long novels.”;positive;NA;NA;Graduated High-school;700159;1776671773505;1776671073346;female;“It’s 600 pages long.”;at-issue-explicit;7;books;English, Punjabi;“What kind of books do you like to read?”;“Have you read the new book that just came out?”;69740e0f44d57fec690581aa;69e5d921b4238ba5147d02ea;69e5297ed748f0b4dc9f5f71;6;14473;8
3910;NA;20;“Oh wow, that’s quite a long book.”;neutral;;;1;NA;NA;NA;NA;Graduated High-school;700159;1776671773505;1776671073346;female;NA;NA;7;books;English, Punjabi;NA;NA;69740e0f44d57fec690581aa;69e5d921b4238ba5147d02ea;69e5297ed748f0b4dc9f5f71;NA;6582;NA
3910;NA;20;NA;NA;;;3;“I just bought new skiing equipment.”;positive;NA;NA;Graduated High-school;700159;1776671773505;1776671073346;female;“There’s lots of fresh snow.”;at-issue-implicit;2;the mountains;English, Punjabi;“What do you love about the mountains?”;“Are you going to the mountains this week?”;69740e0f44d57fec690581aa;69e5d921b4238ba5147d02ea;69e5297ed748f0b4dc9f5f71;6;8402;9
3910;NA;20;“True, it’s meant to snow that day, I forgot about that!”;neutral;;;3;NA;NA;NA;NA;Graduated High-school;700159;1776671773505;1776671073346;female;NA;NA;2;the mountains;English, Punjabi;NA;NA;69740e0f44d57fec690581aa;69e5d921b4238ba5147d02ea;69e5297ed748f0b4dc9f5f71;NA;8305;NA
3910;NA;20;NA;NA;;;2;“I'm a bargain hunter.”;negative;NA;NA;Graduated High-school;700159;1776671773505;1776671073346;female;“It has very expensive paintings.”;at-issue-explicit;8;antique shopping;English, Punjabi;“What kind of antique shopping do you like to do?”;“Do you like the new antique store in town?”;69740e0f44d57fec690581aa;69e5d921b4238ba5147d02ea;69e5297ed748f0b4dc9f5f71;1;18989;10
3910;NA;20;“Ah, if it’s all expensive paintings, it’s not for me either then.”;negative;;;2;NA;NA;NA;NA;Graduated High-school;700159;1776671773505;1776671073346;female;NA;NA;8;antique shopping;English, Punjabi;NA;NA;69740e0f44d57fec690581aa;69e5d921b4238ba5147d02ea;69e5297ed748f0b4dc9f5f71;NA;7923;NA
3950;NA;30;NA;NA;NA;no;control;NA;NA;FALSE;Baking sourdough bread;Higher degree;865768;1776676031232;1776675165464;female;NA;NA;c2;baking;english;NA;NA;69d564b64c23c8aa8e04adb0;69e5e9159d3335d39f9bb2a7;69e5297ed748f0b4dc9f5f71;NA;3519;0
3950;NA;30;NA;NA;;no;control;“I mostly bake cakes and pastries.”;NA;NA;NA;Higher degree;865768;1776676031232;1776675165464;female;“They all end up with my family and friends.”;NA;c2;baking;english;“What do you like to bake?”;“Do you sell any of your baked goods?”;69d564b64c23c8aa8e04adb0;69e5e9159d3335d39f9bb2a7;69e5297ed748f0b4dc9f5f71;1;33168;0
3950;NA;30;“They’re lucky to get them for free, then!”;negative;;no;control;NA;NA;NA;NA;Higher degree;865768;1776676031232;1776675165464;female;NA;NA;c2;baking;english;NA;NA;69d564b64c23c8aa8e04adb0;69e5e9159d3335d39f9bb2a7;69e5297ed748f0b4dc9f5f71;NA;17473;NA
3950;too;30;NA;NA;;no;8;“I love the food my friends who can’t handle spicy food either are cooking.”;negative ;NA;NA;Higher degree;865768;1776676031232;1776675165464;female;“Their food is meant to be really spicy.”;never-at-issue;10;food;english;“What kinds of food do you like the most?”;“Are you going to try the new restaurant in town?”;69d564b64c23c8aa8e04adb0;69e5e9159d3335d39f9bb2a7;69e5297ed748f0b4dc9f5f71;7;20088;1
3950;NA;30;“Nice, I love spicy food as well—I’d definitely want to try it!”;positive;;no;8;NA;NA;NA;NA;Higher degree;865768;1776676031232;1776675165464;female;NA;NA;10;food;english;NA;NA;69d564b64c23c8aa8e04adb0;69e5e9159d3335d39f9bb2a7;69e5297ed748f0b4dc9f5f71;NA;32961;NA
3950;NA;30;NA;NA;;no;1;“I’m a surfer.”;positive;NA;NA;Higher degree;865768;1776676031232;1776675165464;female;“It’s going to be windy.”;at-issue-explicit;1;the beach;english;“What do you like to do at the beach?”;“Will you be at the beach tomorrow?”;69d564b64c23c8aa8e04adb0;69e5e9159d3335d39f9bb2a7;69e5297ed748f0b4dc9f5f71;1;33165;2
3950;NA;30;“Right, windy conditions can make a difference.”;neutral;;no;1;NA;NA;NA;NA;Higher degree;865768;1776676031232;1776675165464;female;NA;NA;1;the beach;english;NA;NA;69d564b64c23c8aa8e04adb0;69e5e9159d3335d39f9bb2a7;69e5297ed748f0b4dc9f5f71;NA;15640;NA
3950;NA;30;NA;NA;;no;5;“As a guitarist in a band that’s playing it, I definitely have heard of it!”;positive;NA;NA;Higher degree;865768;1776676031232;1776675165464;female;“Friday is the band-only soundcheck day.”;no-longer-at-issue;4;festivals;english;“Have you heard of the music festival this weekend?”;“Are you going to the festival on Friday?” ;69d564b64c23c8aa8e04adb0;69e5e9159d3335d39f9bb2a7;69e5297ed748f0b4dc9f5f71;1;19360;3
3950;NA;30;“Well, I hope the rehearsal goes well! Sad that fans like me can’t be there too.”;positive;;no;5;NA;NA;NA;NA;Higher degree;865768;1776676031232;1776675165464;female;NA;NA;4;festivals;english;NA;NA;69d564b64c23c8aa8e04adb0;69e5e9159d3335d39f9bb2a7;69e5297ed748f0b4dc9f5f71;NA;11333;NA
3950;NA;30;NA;NA;NA;no;control;NA;NA;TRUE;Doing portrait photography;Higher degree;865768;1776676031232;1776675165464;female;NA;NA;c4;photography;english;NA;NA;69d564b64c23c8aa8e04adb0;69e5e9159d3335d39f9bb2a7;69e5297ed748f0b4dc9f5f71;NA;5573;4
3950;NA;30;NA;NA;;no;control;“I mainly do portrait photography.”;NA;NA;NA;Higher degree;865768;1776676031232;1776675165464;female;“So far no one has paid me for it.”;NA;c4;photography;english;“What sort of photography are you into?”;“Do you do photography professionally?”;69d564b64c23c8aa8e04adb0;69e5e9159d3335d39f9bb2a7;69e5297ed748f0b4dc9f5f71;1;15384;4
3950;NA;30;“Well, maybe one day they will start paying you for it!”;positive;;no;control;NA;NA;NA;NA;Higher degree;865768;1776676031232;1776675165464;female;NA;NA;c4;photography;english;NA;NA;69d564b64c23c8aa8e04adb0;69e5e9159d3335d39f9bb2a7;69e5297ed748f0b4dc9f5f71;NA;8772;NA
3950;NA;30;NA;NA;;no;4;“I just bought new climbing gear.” ;negative;NA;NA;Higher degree;865768;1776676031232;1776675165464;female;“There’s lots of fresh snow.”;at-issue-implicit ;2;the mountains;english;“What do you love about the mountains?”;“Are you going to the mountains this week?”;69d564b64c23c8aa8e04adb0;69e5e9159d3335d39f9bb2a7;69e5297ed748f0b4dc9f5f71;1;12344;5
3950;NA;30;“Ah, I’m no fan of snow either - maybe we’ll wait for it to melt first!”;negative;;no;4;NA;NA;NA;NA;Higher degree;865768;1776676031232;1776675165464;female;NA;NA;2;the mountains;english;NA;NA;69d564b64c23c8aa8e04adb0;69e5e9159d3335d39f9bb2a7;69e5297ed748f0b4dc9f5f71;NA;38777;NA
3950;NA;30;NA;NA;;no;3;“I love getting completely lost in huge stories.”;positive;NA;NA;Higher degree;865768;1776676031232;1776675165464;female;“It’s 600 pages long.”;at-issue-implicit;7;books;english;“What kind of books do you like to read?”;“Have you read the new book that just came out?”;69d564b64c23c8aa8e04adb0;69e5e9159d3335d39f9bb2a7;69e5297ed748f0b4dc9f5f71;1;10162;6
3950;NA;30;“Oh wow, that’s quite a long book.”;neutral;;no;3;NA;NA;NA;NA;Higher degree;865768;1776676031232;1776675165464;female;NA;NA;7;books;english;NA;NA;69d564b64c23c8aa8e04adb0;69e5e9159d3335d39f9bb2a7;69e5297ed748f0b4dc9f5f71;NA;57178;NA
3950;NA;30;NA;NA;NA;no;control;NA;NA;TRUE;Fishing at the nearby lake;Higher degree;865768;1776676031232;1776675165464;female;NA;NA;c7;fishing;english;NA;NA;69d564b64c23c8aa8e04adb0;69e5e9159d3335d39f9bb2a7;69e5297ed748f0b4dc9f5f71;NA;3630;7
3950;NA;30;NA;NA;;no;control;“I often go to the nearby lake.”;NA;NA;NA;Higher degree;865768;1776676031232;1776675165464;female;“I usually throw them back into the water.”;NA;c7;fishing;english;“Where do you like to go fishing?”;“Do you cook any of the fish you catch?”;69d564b64c23c8aa8e04adb0;69e5e9159d3335d39f9bb2a7;69e5297ed748f0b4dc9f5f71;1;49553;7
3950;NA;30;“That’s nice — I like the idea of just catching and releasing them.”;positive;;no;control;NA;NA;NA;NA;Higher degree;865768;1776676031232;1776675165464;female;NA;NA;c7;fishing;english;NA;NA;69d564b64c23c8aa8e04adb0;69e5e9159d3335d39f9bb2a7;69e5297ed748f0b4dc9f5f71;NA;22526;NA
3950;NA;30;NA;NA;;no;2;“I'm a bargain hunter.”;negative;NA;NA;Higher degree;865768;1776676031232;1776675165464;female;“It has very expensive paintings.”;at-issue-explicit;8;antique shopping;english;“What kind of antique shopping do you like to do?”;“Do you like the new antique store in town?”;69d564b64c23c8aa8e04adb0;69e5e9159d3335d39f9bb2a7;69e5297ed748f0b4dc9f5f71;1;10986;8
3950;NA;30;“Ah, if it’s all expensive paintings, it’s not for me either then.”;negative;;no;2;NA;NA;NA;NA;Higher degree;865768;1776676031232;1776675165464;female;NA;NA;8;antique shopping;english;NA;NA;69d564b64c23c8aa8e04adb0;69e5e9159d3335d39f9bb2a7;69e5297ed748f0b4dc9f5f71;NA;18109;NA
3950;NA;30;NA;NA;;no;6;“As a night owl, I really enjoy going outside of the rush hours.”;negative;NA;NA;Higher degree;865768;1776676031232;1776675165464;female;“It starts at 7am.”;no-longer-at-issue;9;the gym;english;“When do you usually go to the gym?”;“Do you usually go to the gym’s pilates class?”;69d564b64c23c8aa8e04adb0;69e5e9159d3335d39f9bb2a7;69e5297ed748f0b4dc9f5f71;7;14572;9
3950;NA;30;“Ah, yeah, 7am is way too early for me—I definitely wouldn’t go either.”;negative;;no;6;NA;NA;NA;NA;Higher degree;865768;1776676031232;1776675165464;female;NA;NA;9;the gym;english;NA;NA;69d564b64c23c8aa8e04adb0;69e5e9159d3335d39f9bb2a7;69e5297ed748f0b4dc9f5f71;NA;13206;NA
3950;too;30;NA;NA;;no;7;“I love running with my friends who are also marathon runners!”;positive;NA;NA;Higher degree;865768;1776676031232;1776675165464;female;“It’s a marathon.”;never-at-issue;3;running;english;“What kind of running do you do?”;“Will you participate in the city run this weekend?”;69d564b64c23c8aa8e04adb0;69e5e9159d3335d39f9bb2a7;69e5297ed748f0b4dc9f5f71;7;7816;10
3950;NA;30;“Nice, I’ve always wanted to try a marathon as well!”;positive;;no;7;NA;NA;NA;NA;Higher degree;865768;1776676031232;1776675165464;female;NA;NA;3;running;english;NA;NA;69d564b64c23c8aa8e04adb0;69e5e9159d3335d39f9bb2a7;69e5297ed748f0b4dc9f5f71;NA;9452;NA
3911;NA;28;NA;NA;NA;None;control;NA;NA;TRUE;Baking cake and pastries;Higher degree;599949;1776673908330;1776673308381;female;NA;NA;c2;baking;English ;NA;NA;69d4d7b4ecb76163ee4087b2;69e5e2074fcaaa4bd25ff1da;69e5297ed748f0b4dc9f5f71;NA;5174;0
3911;NA;28;NA;NA;;None;control;“I mostly bake cakes and pastries.”;NA;NA;NA;Higher degree;599949;1776673908330;1776673308381;female;“They all end up with my family and friends.”;NA;c2;baking;English ;“What do you like to bake?”;“Do you sell any of your baked goods?”;69d4d7b4ecb76163ee4087b2;69e5e2074fcaaa4bd25ff1da;69e5297ed748f0b4dc9f5f71;1;24993;0
3911;NA;28;“They’re lucky to get them for free, then!”;negative;;None;control;NA;NA;NA;NA;Higher degree;599949;1776673908330;1776673308381;female;NA;NA;c2;baking;English ;NA;NA;69d4d7b4ecb76163ee4087b2;69e5e2074fcaaa4bd25ff1da;69e5297ed748f0b4dc9f5f71;NA;27164;NA
3911;NA;28;NA;NA;;None;5;“As a chili enthusiast, I’m love trying new foods.”;positive;NA;NA;Higher degree;599949;1776673908330;1776673308381;female;“Their food is meant to be really spicy.”;no-longer-at-issue;10;food;English ;“What kinds of food do you like the most?”;“Are you going to try the new restaurant in town?”;69d4d7b4ecb76163ee4087b2;69e5e2074fcaaa4bd25ff1da;69e5297ed748f0b4dc9f5f71;7;22476;1
3911;NA;28;“Nice, I love spicy food as well—I’d definitely want to try it!”;positive;;None;5;NA;NA;NA;NA;Higher degree;599949;1776673908330;1776673308381;female;NA;NA;10;food;English ;NA;NA;69d4d7b4ecb76163ee4087b2;69e5e2074fcaaa4bd25ff1da;69e5297ed748f0b4dc9f5f71;NA;21446;NA
3911;NA;28;NA;NA;;None;3;"""I just bought a new surfboard.”";positive;NA;NA;Higher degree;599949;1776673908330;1776673308381;female;“It’s going to be windy.”;at-issue-implicit;1;the beach;English ;“What do you like to do at the beach?”;“Will you be at the beach tomorrow?”;69d4d7b4ecb76163ee4087b2;69e5e2074fcaaa4bd25ff1da;69e5297ed748f0b4dc9f5f71;1;10739;2
3911;NA;28;“Ah, yeah, with that wind I wouldn’t find the beach pleasant either.”;negative;;None;3;NA;NA;NA;NA;Higher degree;599949;1776673908330;1776673308381;female;NA;NA;1;the beach;English ;NA;NA;69d4d7b4ecb76163ee4087b2;69e5e2074fcaaa4bd25ff1da;69e5297ed748f0b4dc9f5f71;NA;14801;NA
3911;NA;28;NA;NA;;None;6;“As a bargain hunter, I enjoy searching for unique pieces.”;negative;NA;NA;Higher degree;599949;1776673908330;1776673308381;female;“It has very expensive paintings.”;no-longer-at-issue;8;antique shopping;English ;“What kind of antique shopping do you like to do?”;“Do you like the new antique store in town?”;69d4d7b4ecb76163ee4087b2;69e5e2074fcaaa4bd25ff1da;69e5297ed748f0b4dc9f5f71;1;6770;3
3911;NA;28;“Ah, if it’s all expensive paintings, it’s not for me either then.”;negative;;None;6;NA;NA;NA;NA;Higher degree;599949;1776673908330;1776673308381;female;NA;NA;8;antique shopping;English ;NA;NA;69d4d7b4ecb76163ee4087b2;69e5e2074fcaaa4bd25ff1da;69e5297ed748f0b4dc9f5f71;NA;27048;NA
3911;NA;28;NA;NA;NA;None;control;NA;NA;TRUE;Tap dancing;Higher degree;599949;1776673908330;1776673308381;female;NA;NA;c6;dancing;English ;NA;NA;69d4d7b4ecb76163ee4087b2;69e5e2074fcaaa4bd25ff1da;69e5297ed748f0b4dc9f5f71;NA;19108;4
3911;NA;28;NA;NA;;None;control;“I do tap dance every single Friday.”;NA;NA;NA;Higher degree;599949;1776673908330;1776673308381;female;“Last winter we did one at our local theatre.”;NA;c6;dancing;English ;“What kind of dancing do you do?”;“Wow, do you ever do performances?”;69d4d7b4ecb76163ee4087b2;69e5e2074fcaaa4bd25ff1da;69e5297ed748f0b4dc9f5f71;7;15638;4
3911;NA;28;“That’s amazing — performing on stage must be so exciting.”;positive;;None;control;NA;NA;NA;NA;Higher degree;599949;1776673908330;1776673308381;female;NA;NA;c6;dancing;English ;NA;NA;69d4d7b4ecb76163ee4087b2;69e5e2074fcaaa4bd25ff1da;69e5297ed748f0b4dc9f5f71;NA;14346;NA
3911;NA;28;NA;NA;;None;1;“I'm an early bird!”;positive;NA;NA;Higher degree;599949;1776673908330;1776673308381;female;“It starts at 7am.”;at-issue-explicit;9;the gym;English ;“When do you usually go to the gym?”;“Do you usually go to the gym’s pilates class?”;69d4d7b4ecb76163ee4087b2;69e5e2074fcaaa4bd25ff1da;69e5297ed748f0b4dc9f5f71;7;11752;5
3911;NA;28;“Nice, early classes like that are great—I’d go regularly too!”;positive;;None;1;NA;NA;NA;NA;Higher degree;599949;1776673908330;1776673308381;female;NA;NA;9;the gym;English ;NA;NA;69d4d7b4ecb76163ee4087b2;69e5e2074fcaaa4bd25ff1da;69e5297ed748f0b4dc9f5f71;NA;8085;NA
3911;NA;28;NA;NA;;None;4;“I recently started running during my work breaks.”;negative;NA;NA;Higher degree;599949;1776673908330;1776673308381;female;“It’s a marathon.”;at-issue-implicit ;3;running;English ;“What kind of running do you do?”;“Will you participate in the city run this weekend?”;69d4d7b4ecb76163ee4087b2;69e5e2074fcaaa4bd25ff1da;69e5297ed748f0b4dc9f5f71;7;7044;6
3911;NA;28;“Ah, a full marathon? Yeah, that’s probably too difficult for me as well.”;negative;;None;4;NA;NA;NA;NA;Higher degree;599949;1776673908330;1776673308381;female;NA;NA;3;running;English ;NA;NA;69d4d7b4ecb76163ee4087b2;69e5e2074fcaaa4bd25ff1da;69e5297ed748f0b4dc9f5f71;NA;13160;NA
3911;NA;28;NA;NA;NA;None;control;NA;NA;TRUE;Hating flying;Higher degree;599949;1776673908330;1776673308381;female;NA;NA;c9;travel;English ;NA;NA;69d4d7b4ecb76163ee4087b2;69e5e2074fcaaa4bd25ff1da;69e5297ed748f0b4dc9f5f71;NA;14486;7
3911;NA;28;NA;NA;;None;control;“I really hate flying.”;NA;NA;NA;Higher degree;599949;1776673908330;1776673308381;female;“I mainly drive myself.” ;NA;c9;travel;English ;“What is your favourite mode of transport for travelling?”;“Do you take the train then instead?”;69d4d7b4ecb76163ee4087b2;69e5e2074fcaaa4bd25ff1da;69e5297ed748f0b4dc9f5f71;1;6679;7
3911;NA;28;“I honestly enjoy both train and car rides a lot.” ;neutral;;None;control;NA;NA;NA;NA;Higher degree;599949;1776673908330;1776673308381;female;NA;NA;c9;travel;English ;NA;NA;69d4d7b4ecb76163ee4087b2;69e5e2074fcaaa4bd25ff1da;69e5297ed748f0b4dc9f5f71;NA;17801;NA
3911;NA;28;NA;NA;;None;2;“I like all rock concerts.”;negative;NA;NA;Higher degree;599949;1776673908330;1776673308381;female;“It's a string quartet.”;at-issue-explicit;6;concerts;English ;“What kind of concerts do you like?”;“Are you going to the concert in the town hall on Saturday?”;69d4d7b4ecb76163ee4087b2;69e5e2074fcaaa4bd25ff1da;69e5297ed748f0b4dc9f5f71;7;8124;8
3911;NA;28;“Sounds lovely, I’ll come hear the quartet too!”;positive;;None;2;NA;NA;NA;NA;Higher degree;599949;1776673908330;1776673308381;female;NA;NA;6;concerts;English ;NA;NA;69d4d7b4ecb76163ee4087b2;69e5e2074fcaaa4bd25ff1da;69e5297ed748f0b4dc9f5f71;NA;9113;NA
3911;too;28;NA;NA;;None;7;“I’m in a book club with my friends who also love reading really long novels.”;positive;NA;NA;Higher degree;599949;1776673908330;1776673308381;female;“It’s 600 pages long.”;never-at-issue;7;books;English ;“What kind of books do you like to read?”;“Have you read the new book that just came out?”;69d4d7b4ecb76163ee4087b2;69e5e2074fcaaa4bd25ff1da;69e5297ed748f0b4dc9f5f71;6;13639;9
3911;NA;28;“Oh wow, that’s quite a long book.”;neutral;;None;7;NA;NA;NA;NA;Higher degree;599949;1776673908330;1776673308381;female;NA;NA;7;books;English ;NA;NA;69d4d7b4ecb76163ee4087b2;69e5e2074fcaaa4bd25ff1da;69e5297ed748f0b4dc9f5f71;NA;5752;NA
3911;like me;28;NA;NA;;None;8;“Rock climbers like me love spending entire days there!”;negative ;NA;NA;Higher degree;599949;1776673908330;1776673308381;female;“There’s lots of fresh snow.”;never-at-issue;2;the mountains;English ;“What do you love about the mountains?”;“Are you going to the mountains this week?”;69d4d7b4ecb76163ee4087b2;69e5e2074fcaaa4bd25ff1da;69e5297ed748f0b4dc9f5f71;1;9896;10
3911;NA;28;“Ah, I’m no fan of snow either - maybe we’ll wait for it to melt first!”;negative;;None;8;NA;NA;NA;NA;Higher degree;599949;1776673908330;1776673308381;female;NA;NA;2;the mountains;English ;NA;NA;69d4d7b4ecb76163ee4087b2;69e5e2074fcaaa4bd25ff1da;69e5297ed748f0b4dc9f5f71;NA;3856;NA
3951;NA;28;NA;NA;NA;none;control;NA;NA;TRUE;Painting with watercolours;Graduated College;976980;1777194486296;1777193509316;male;NA;NA;c3;painting;englidh;NA;NA;69dcfed5a591156a4a147014;69e5e9235037bb5049f14276;69e5297ed748f0b4dc9f5f71;NA;36169;0
3951;NA;28;NA;NA;;none;control;“I like to paint with watercolours.”;NA;NA;NA;Graduated College;976980;1777194486296;1777193509316;male;“I usually paint landscapes.”;NA;c3;painting;englidh;“What colours do you paint with?”;“Do you paint portraits?”;69dcfed5a591156a4a147014;69e5e9235037bb5049f14276;69e5297ed748f0b4dc9f5f71;2;51928;0
3951;NA;28;“I think I prefer portraits, but landscapes are cool too.”;negative;;none;control;NA;NA;NA;NA;Graduated College;976980;1777194486296;1777193509316;male;NA;NA;c3;painting;englidh;NA;NA;69dcfed5a591156a4a147014;69e5e9235037bb5049f14276;69e5297ed748f0b4dc9f5f71;NA;24472;NA
3951;like me;28;NA;NA;;none;7;“Early birds like me love to get a workout in every day.”;positive;NA;NA;Graduated College;976980;1777194486296;1777193509316;male;“It starts at 7am.”;never-at-issue;9;the gym;englidh;“When do you usually go to the gym?”;“Do you usually go to the gym’s pilates class?”;69dcfed5a591156a4a147014;69e5e9235037bb5049f14276;69e5297ed748f0b4dc9f5f71;2;13728;1
3951;NA;28;“Ah, yeah, 7am is way too early for me—I definitely wouldn’t go either.”;negative;;none;7;NA;NA;NA;NA;Graduated College;976980;1777194486296;1777193509316;male;NA;NA;9;the gym;englidh;NA;NA;69dcfed5a591156a4a147014;69e5e9235037bb5049f14276;69e5297ed748f0b4dc9f5f71;NA;9240;NA
3951;NA;28;NA;NA;;none;6;“As a sunbather, I spend a lot of time there.”;negative;NA;NA;Graduated College;976980;1777194486296;1777193509316;male;“It’s going to be windy.”;no-longer-at-issue;1;the beach;englidh;“What do you like to do at the beach?”;“Will you be at the beach tomorrow?”;69dcfed5a591156a4a147014;69e5e9235037bb5049f14276;69e5297ed748f0b4dc9f5f71;2;14360;2
3951;NA;28;“Ah, yeah, with that wind I wouldn’t find the beach pleasant either.”;negative;;none;6;NA;NA;NA;NA;Graduated College;976980;1777194486296;1777193509316;male;NA;NA;1;the beach;englidh;NA;NA;69dcfed5a591156a4a147014;69e5e9235037bb5049f14276;69e5297ed748f0b4dc9f5f71;NA;17600;NA
3951;NA;28;NA;NA;;none;5;“As a marathon runner, I love exploring new trails in nature.”;positive;NA;NA;Graduated College;976980;1777194486296;1777193509316;male;“It’s a marathon.”;no-longer-at-issue;3;running;englidh;“What kind of running do you do?”;“Will you participate in the city run this weekend?”;69dcfed5a591156a4a147014;69e5e9235037bb5049f14276;69e5297ed748f0b4dc9f5f71;4;11296;3
3951;NA;28;“Ah, a full marathon? Yeah, that’s probably too difficult for me as well.”;negative;;none;5;NA;NA;NA;NA;Graduated College;976980;1777194486296;1777193509316;male;NA;NA;3;running;englidh;NA;NA;69dcfed5a591156a4a147014;69e5e9235037bb5049f14276;69e5297ed748f0b4dc9f5f71;NA;11320;NA
3951;NA;28;NA;NA;NA;none;control;NA;NA;TRUE;Tap dancing;Graduated College;976980;1777194486296;1777193509316;male;NA;NA;c6;dancing;englidh;NA;NA;69dcfed5a591156a4a147014;69e5e9235037bb5049f14276;69e5297ed748f0b4dc9f5f71;NA;7056;4
3951;NA;28;NA;NA;;none;control;“I do tap dance every single Friday.”;NA;NA;NA;Graduated College;976980;1777194486296;1777193509316;male;“Last winter we did one at our local theatre.”;NA;c6;dancing;englidh;“What kind of dancing do you do?”;“Wow, do you ever do performances?”;69dcfed5a591156a4a147014;69e5e9235037bb5049f14276;69e5297ed748f0b4dc9f5f71;3;12441;4
3951;NA;28;“That’s amazing — performing on stage must be so exciting.”;positive;;none;control;NA;NA;NA;NA;Graduated College;976980;1777194486296;1777193509316;male;NA;NA;c6;dancing;englidh;NA;NA;69dcfed5a591156a4a147014;69e5e9235037bb5049f14276;69e5297ed748f0b4dc9f5f71;NA;17048;NA
3951;NA;28;NA;NA;;none;2;“I’m a very casual chess player.”;negative;NA;NA;Graduated College;976980;1777194486296;1777193509316;male;“It’s a six-hour match format.”;at-issue-explicit;5;chess;englidh;“What do you enjoy about playing chess?”;“Are you entering the tournament this weekend?”;69dcfed5a591156a4a147014;69e5e9235037bb5049f14276;69e5297ed748f0b4dc9f5f71;3;17288;5
3951;NA;28;“Well, I’m not a professional like you, but I might come to watch you play!”;positive;;none;2;NA;NA;NA;NA;Graduated College;976980;1777194486296;1777193509316;male;NA;NA;5;chess;englidh;NA;NA;69dcfed5a591156a4a147014;69e5e9235037bb5049f14276;69e5297ed748f0b4dc9f5f71;NA;14936;NA
3951;NA;28;NA;NA;;none;3;“I was raised on Mozart and Chopin.” ;positive;NA;NA;Graduated College;976980;1777194486296;1777193509316;male;“It's a string quartet.”;at-issue-implicit;6;concerts;englidh;“What kind of concerts do you like?”;“Are you going to the concert in the town hall on Saturday?”;69dcfed5a591156a4a147014;69e5e9235037bb5049f14276;69e5297ed748f0b4dc9f5f71;4;8072;6
3951;NA;28;“Oh, I didn’t realise it was a string quartet.”;neutral;;none;3;NA;NA;NA;NA;Graduated College;976980;1777194486296;1777193509316;male;NA;NA;6;concerts;englidh;NA;NA;69dcfed5a591156a4a147014;69e5e9235037bb5049f14276;69e5297ed748f0b4dc9f5f71;NA;4424;NA
3951;NA;28;NA;NA;NA;none;control;NA;NA;TRUE;Fishing at the nearby lake;Graduated College;976980;1777194486296;1777193509316;male;NA;NA;c7;fishing;englidh;NA;NA;69dcfed5a591156a4a147014;69e5e9235037bb5049f14276;69e5297ed748f0b4dc9f5f71;NA;6112;7
3951;NA;28;NA;NA;;none;control;“I often go to the nearby lake.”;NA;NA;NA;Graduated College;976980;1777194486296;1777193509316;male;“I usually throw them back into the water.”;NA;c7;fishing;englidh;“Where do you like to go fishing?”;“Do you cook any of the fish you catch?”;69dcfed5a591156a4a147014;69e5e9235037bb5049f14276;69e5297ed748f0b4dc9f5f71;1;200483;7
3951;NA;28;“That’s nice — I like the idea of just catching and releasing them.”;positive;;none;control;NA;NA;NA;NA;Graduated College;976980;1777194486296;1777193509316;male;NA;NA;c7;fishing;englidh;NA;NA;69dcfed5a591156a4a147014;69e5e9235037bb5049f14276;69e5297ed748f0b4dc9f5f71;NA;18112;NA
3951;like me;28;NA;NA;;none;8;“Bargain hunters like me love searching for unique pieces.”;negative ;NA;NA;Graduated College;976980;1777194486296;1777193509316;male;“It has very expensive paintings.”;never-at-issue;8;antique shopping;englidh;“What kind of antique shopping do you like to do?”;“Do you like the new antique store in town?”;69dcfed5a591156a4a147014;69e5e9235037bb5049f14276;69e5297ed748f0b4dc9f5f71;3;5127;8
3951;NA;28;“Ah, if it’s all expensive paintings, it’s not for me either then.”;negative;;none;8;NA;NA;NA;NA;Graduated College;976980;1777194486296;1777193509316;male;NA;NA;8;antique shopping;englidh;NA;NA;69dcfed5a591156a4a147014;69e5e9235037bb5049f14276;69e5297ed748f0b4dc9f5f71;NA;17728;NA
3951;NA;28;NA;NA;;none;4;“I love mashed potatoes and coleslaw.”;negative;NA;NA;Graduated College;976980;1777194486296;1777193509316;male;“Their food is meant to be really spicy.”;at-issue-implicit ;10;food;englidh;“What kinds of food do you like the most?”;“Are you going to try the new restaurant in town?”;69dcfed5a591156a4a147014;69e5e9235037bb5049f14276;69e5297ed748f0b4dc9f5f71;3;3760;9
3951;NA;28;“Nice, I love spicy food as well—I’d definitely want to try it!”;positive;;none;4;NA;NA;NA;NA;Graduated College;976980;1777194486296;1777193509316;male;NA;NA;10;food;englidh;NA;NA;69dcfed5a591156a4a147014;69e5e9235037bb5049f14276;69e5297ed748f0b4dc9f5f71;NA;19504;NA
3951;NA;28;NA;NA;;none;1;“I love reading really long novels.”;positive;NA;NA;Graduated College;976980;1777194486296;1777193509316;male;“It’s 600 pages long.”;at-issue-explicit;7;books;englidh;“What kind of books do you like to read?”;“Have you read the new book that just came out?”;69dcfed5a591156a4a147014;69e5e9235037bb5049f14276;69e5297ed748f0b4dc9f5f71;3;15760;10
3951;NA;28;“Ah, 600 pages? Yeah, I think that’s too long for me as well.”;negative;;none;1;NA;NA;NA;NA;Graduated College;976980;1777194486296;1777193509316;male;NA;NA;7;books;englidh;NA;NA;69dcfed5a591156a4a147014;69e5e9235037bb5049f14276;69e5297ed748f0b4dc9f5f71;NA;10552;NA
3912;NA;30;NA;NA;NA;;control;NA;NA;TRUE;Painting with watercolours;Higher degree;505855;1776675610839;1776675104984;female;NA;NA;c3;painting;English;NA;NA;69d5359d61fba1e40b987b5d;69e5e91c2758441c9ddffe4d;69e5297ed748f0b4dc9f5f71;NA;7577;0
3912;NA;30;NA;NA;;;control;“I like to paint with watercolours.”;NA;NA;NA;Higher degree;505855;1776675610839;1776675104984;female;“I usually paint landscapes.”;NA;c3;painting;English;“What colours do you paint with?”;“Do you paint portraits?”;69d5359d61fba1e40b987b5d;69e5e91c2758441c9ddffe4d;69e5297ed748f0b4dc9f5f71;5;14887;0
3912;NA;30;“I think I prefer portraits, but landscapes are cool too.”;negative;;;control;NA;NA;NA;NA;Higher degree;505855;1776675610839;1776675104984;female;NA;NA;c3;painting;English;NA;NA;69d5359d61fba1e40b987b5d;69e5e91c2758441c9ddffe4d;69e5297ed748f0b4dc9f5f71;NA;36699;NA
3912;NA;30;NA;NA;;;5;“As a classical concert enjoyer, I especially love concerts where I can discover new music.”;positive;NA;NA;Higher degree;505855;1776675610839;1776675104984;female;“It's a string quartet.”;no-longer-at-issue;6;concerts;English;“What kind of concerts do you like?”;“Are you going to the concert in the town hall on Saturday?”;69d5359d61fba1e40b987b5d;69e5e91c2758441c9ddffe4d;69e5297ed748f0b4dc9f5f71;4;11489;1
3912;NA;30;“Oh, I didn’t realise it was a string quartet.”;neutral;;;5;NA;NA;NA;NA;Higher degree;505855;1776675610839;1776675104984;female;NA;NA;6;concerts;English;NA;NA;69d5359d61fba1e40b987b5d;69e5e91c2758441c9ddffe4d;69e5297ed748f0b4dc9f5f71;NA;10192;NA
3912;NA;30;NA;NA;;;1;“I'm a skier.”;positive;NA;NA;Higher degree;505855;1776675610839;1776675104984;female;“There’s lots of fresh snow.”;at-issue-explicit;2;the mountains;English;“What do you love about the mountains?”;“Are you going to the mountains this week?”;69d5359d61fba1e40b987b5d;69e5e91c2758441c9ddffe4d;69e5297ed748f0b4dc9f5f71;7;6724;2
3912;NA;30;“Perfect, fresh snow sounds great to me too —see you there!”;positive;;;1;NA;NA;NA;NA;Higher degree;505855;1776675610839;1776675104984;female;NA;NA;2;the mountains;English;NA;NA;69d5359d61fba1e40b987b5d;69e5e91c2758441c9ddffe4d;69e5297ed748f0b4dc9f5f71;NA;10256;NA
3912;NA;30;NA;NA;;;4;“I recently started running during my work breaks.”;negative;NA;NA;Higher degree;505855;1776675610839;1776675104984;female;“It’s a marathon.”;at-issue-implicit ;3;running;English;“What kind of running do you do?”;“Will you participate in the city run this weekend?”;69d5359d61fba1e40b987b5d;69e5e91c2758441c9ddffe4d;69e5297ed748f0b4dc9f5f71;7;6194;3
3912;NA;30;“Oh wow, that’s a big event. Maybe I’ll come by and watch!”;neutral;;;4;NA;NA;NA;NA;Higher degree;505855;1776675610839;1776675104984;female;NA;NA;3;running;English;NA;NA;69d5359d61fba1e40b987b5d;69e5e91c2758441c9ddffe4d;69e5297ed748f0b4dc9f5f71;NA;9790;NA
3912;NA;30;NA;NA;NA;;control;NA;NA;TRUE;Doing portrait photography;Higher degree;505855;1776675610839;1776675104984;female;NA;NA;c4;photography;English;NA;NA;69d5359d61fba1e40b987b5d;69e5e91c2758441c9ddffe4d;69e5297ed748f0b4dc9f5f71;NA;5977;4
3912;NA;30;NA;NA;;;control;“I mainly do portrait photography.”;NA;NA;NA;Higher degree;505855;1776675610839;1776675104984;female;“So far no one has paid me for it.”;NA;c4;photography;English;“What sort of photography are you into?”;“Do you do photography professionally?”;69d5359d61fba1e40b987b5d;69e5e91c2758441c9ddffe4d;69e5297ed748f0b4dc9f5f71;7;8361;4
3912;NA;30;“Oh, you should start charging for it if you’re serious about it!”;negative;;;control;NA;NA;NA;NA;Higher degree;505855;1776675610839;1776675104984;female;NA;NA;c4;photography;English;NA;NA;69d5359d61fba1e40b987b5d;69e5e91c2758441c9ddffe4d;69e5297ed748f0b4dc9f5f71;NA;8440;NA
3912;too;30;NA;NA;;;7;“I enjoy playing against my friends who are also professional chess players.”;positive;NA;NA;Higher degree;505855;1776675610839;1776675104984;female;“It’s a six-hour match format.”;never-at-issue;5;chess;English;“What do you enjoy about playing chess?”;“Are you entering the tournament this weekend?”;69d5359d61fba1e40b987b5d;69e5e91c2758441c9ddffe4d;69e5297ed748f0b4dc9f5f71;5;6792;5
3912;NA;30;“Well, I’m not a professional like you, but I might come to watch you play!”;positive;;;7;NA;NA;NA;NA;Higher degree;505855;1776675610839;1776675104984;female;NA;NA;5;chess;English;NA;NA;69d5359d61fba1e40b987b5d;69e5e91c2758441c9ddffe4d;69e5297ed748f0b4dc9f5f71;NA;11074;NA
3912;NA;30;NA;NA;;;3;“I love getting completely lost in huge stories.”;positive;NA;NA;Higher degree;505855;1776675610839;1776675104984;female;“It’s 600 pages long.”;at-issue-implicit;7;books;English;“What kind of books do you like to read?”;“Have you read the new book that just came out?”;69d5359d61fba1e40b987b5d;69e5e91c2758441c9ddffe4d;69e5297ed748f0b4dc9f5f71;7;7442;6
3912;NA;30;“Nice, I’ve been meaning to read the book too!”;positive;;;3;NA;NA;NA;NA;Higher degree;505855;1776675610839;1776675104984;female;NA;NA;7;books;English;NA;NA;69d5359d61fba1e40b987b5d;69e5e91c2758441c9ddffe4d;69e5297ed748f0b4dc9f5f71;NA;7245;NA
3912;NA;30;NA;NA;NA;;control;NA;NA;TRUE;Fishing at the nearby lake;Higher degree;505855;1776675610839;1776675104984;female;NA;NA;c7;fishing;English;NA;NA;69d5359d61fba1e40b987b5d;69e5e91c2758441c9ddffe4d;69e5297ed748f0b4dc9f5f71;NA;4130;7
3912;NA;30;NA;NA;;;control;“I often go to the nearby lake.”;NA;NA;NA;Higher degree;505855;1776675610839;1776675104984;female;“I usually throw them back into the water.”;NA;c7;fishing;English;“Where do you like to go fishing?”;“Do you cook any of the fish you catch?”;69d5359d61fba1e40b987b5d;69e5e91c2758441c9ddffe4d;69e5297ed748f0b4dc9f5f71;1;9277;7
3912;NA;30;“Very animal friendly!”;neutral;;;control;NA;NA;NA;NA;Higher degree;505855;1776675610839;1776675104984;female;NA;NA;c7;fishing;English;NA;NA;69d5359d61fba1e40b987b5d;69e5e91c2758441c9ddffe4d;69e5297ed748f0b4dc9f5f71;NA;8562;NA
3912;NA;30;NA;NA;;;6;“As a sunbather, I spend a lot of time there.”;negative;NA;NA;Higher degree;505855;1776675610839;1776675104984;female;“It’s going to be windy.”;no-longer-at-issue;1;the beach;English;“What do you like to do at the beach?”;“Will you be at the beach tomorrow?”;69d5359d61fba1e40b987b5d;69e5e91c2758441c9ddffe4d;69e5297ed748f0b4dc9f5f71;5;5929;8
3912;NA;30;“I was also planning to go! Maybe I’ll see you there.”;positive;;;6;NA;NA;NA;NA;Higher degree;505855;1776675610839;1776675104984;female;NA;NA;1;the beach;English;NA;NA;69d5359d61fba1e40b987b5d;69e5e91c2758441c9ddffe4d;69e5297ed748f0b4dc9f5f71;NA;6062;NA
3912;too;30;NA;NA;;;8;“I love the food my friends who can’t handle spicy food either are cooking.”;negative ;NA;NA;Higher degree;505855;1776675610839;1776675104984;female;“Their food is meant to be really spicy.”;never-at-issue;10;food;English;“What kinds of food do you like the most?”;“Are you going to try the new restaurant in town?”;69d5359d61fba1e40b987b5d;69e5e91c2758441c9ddffe4d;69e5297ed748f0b4dc9f5f71;7;12552;9
3912;NA;30;“Nice, I love spicy food as well—I’d definitely want to try it!”;positive;;;8;NA;NA;NA;NA;Higher degree;505855;1776675610839;1776675104984;female;NA;NA;10;food;English;NA;NA;69d5359d61fba1e40b987b5d;69e5e91c2758441c9ddffe4d;69e5297ed748f0b4dc9f5f71;NA;7675;NA
3912;NA;30;NA;NA;;;2;“I’m really excited to see the headliner perform.”;negative;NA;NA;Higher degree;505855;1776675610839;1776675104984;female;“Friday is the band-only soundcheck day.”;at-issue-explicit;4;festivals;English;“Have you heard of the music festival this weekend?”;“Are you going to the festival on Friday?” ;69d5359d61fba1e40b987b5d;69e5e91c2758441c9ddffe4d;69e5297ed748f0b4dc9f5f71;2;12987;10
3912;NA;30;“Right, I forgot it’s just the band soundcheck that day.”;neutral;;;2;NA;NA;NA;NA;Higher degree;505855;1776675610839;1776675104984;female;NA;NA;4;festivals;English;NA;NA;69d5359d61fba1e40b987b5d;69e5e91c2758441c9ddffe4d;69e5297ed748f0b4dc9f5f71;NA;8708;NA
3952;NA;35;NA;NA;NA;n/a;control;NA;NA;TRUE;Growing vegetables;Graduated High-school;252732;1776676299598;1776676046866;female;NA;NA;c1;gardening;english;NA;NA;69de87934fb33f7490a8f178;69e5e8f195326c3c77a1a518;69e5297ed748f0b4dc9f5f71;NA;2424;0
3952;NA;35;NA;NA;;n/a;control;“I grow my own vegetables.”;NA;NA;NA;Graduated High-school;252732;1776676299598;1776676046866;female;“I love to make vegetable soups with them.” ;NA;c1;gardening;english;“What kind of gardening do you like to do?”;“Do you cook using your own vegetables?”;69de87934fb33f7490a8f178;69e5e8f195326c3c77a1a518;69e5297ed748f0b4dc9f5f71;6;6329;0
3952;NA;35;“That’s so cool! I would love to cook with my own veggies too.”;positive;;n/a;control;NA;NA;NA;NA;Graduated High-school;252732;1776676299598;1776676046866;female;NA;NA;c1;gardening;english;NA;NA;69de87934fb33f7490a8f178;69e5e8f195326c3c77a1a518;69e5297ed748f0b4dc9f5f71;NA;3463;NA
3952;too;35;NA;NA;;n/a;8;“I always enjoy going to concerts with my friends who like rock concerts too!” ;negative ;NA;NA;Graduated High-school;252732;1776676299598;1776676046866;female;“It's a string quartet.”;never-at-issue;6;concerts;english;“What kind of concerts do you like?”;“Are you going to the concert in the town hall on Saturday?”;69de87934fb33f7490a8f178;69e5e8f195326c3c77a1a518;69e5297ed748f0b4dc9f5f71;6;5076;1
3952;NA;35;“Sounds lovely, I’ll come hear the quartet too!”;positive;;n/a;8;NA;NA;NA;NA;Graduated High-school;252732;1776676299598;1776676046866;female;NA;NA;6;concerts;english;NA;NA;69de87934fb33f7490a8f178;69e5e8f195326c3c77a1a518;69e5297ed748f0b4dc9f5f71;NA;1758;NA
3952;NA;35;NA;NA;;n/a;4;“I just bought a new beach read.”;negative;NA;NA;Graduated High-school;252732;1776676299598;1776676046866;female;“It’s going to be windy.”;at-issue-implicit ;1;the beach;english;“What do you like to do at the beach?”;“Will you be at the beach tomorrow?”;69de87934fb33f7490a8f178;69e5e8f195326c3c77a1a518;69e5297ed748f0b4dc9f5f71;2;4998;2
3952;NA;35;“I was also planning to go! Maybe I’ll see you there.”;positive;;n/a;4;NA;NA;NA;NA;Graduated High-school;252732;1776676299598;1776676046866;female;NA;NA;1;the beach;english;NA;NA;69de87934fb33f7490a8f178;69e5e8f195326c3c77a1a518;69e5297ed748f0b4dc9f5f71;NA;4953;NA
3952;like me;35;NA;NA;;n/a;7;“Early birds like me love to get a workout in every day.”;positive;NA;NA;Graduated High-school;252732;1776676299598;1776676046866;female;“It starts at 7am.”;never-at-issue;9;the gym;english;“When do you usually go to the gym?”;“Do you usually go to the gym’s pilates class?”;69de87934fb33f7490a8f178;69e5e8f195326c3c77a1a518;69e5297ed748f0b4dc9f5f71;7;4060;3
3952;NA;35;“Nice, early classes like that are great—I’d go regularly too!”;positive;;n/a;7;NA;NA;NA;NA;Graduated High-school;252732;1776676299598;1776676046866;female;NA;NA;9;the gym;english;NA;NA;69de87934fb33f7490a8f178;69e5e8f195326c3c77a1a518;69e5297ed748f0b4dc9f5f71;NA;24267;NA
3952;NA;35;NA;NA;NA;n/a;control;NA;NA;TRUE;Doing portrait photography;Graduated High-school;252732;1776676299598;1776676046866;female;NA;NA;c4;photography;english;NA;NA;69de87934fb33f7490a8f178;69e5e8f195326c3c77a1a518;69e5297ed748f0b4dc9f5f71;NA;2535;4
3952;NA;35;NA;NA;;n/a;control;“I mainly do portrait photography.”;NA;NA;NA;Graduated High-school;252732;1776676299598;1776676046866;female;“So far no one has paid me for it.”;NA;c4;photography;english;“What sort of photography are you into?”;“Do you do photography professionally?”;69de87934fb33f7490a8f178;69e5e8f195326c3c77a1a518;69e5297ed748f0b4dc9f5f71;1;3743;4
3952;NA;35;“Oh, you should start charging for it if you’re serious about it!”;negative;;n/a;control;NA;NA;NA;NA;Graduated High-school;252732;1776676299598;1776676046866;female;NA;NA;c4;photography;english;NA;NA;69de87934fb33f7490a8f178;69e5e8f195326c3c77a1a518;69e5297ed748f0b4dc9f5f71;NA;2837;NA
3952;NA;35;NA;NA;;n/a;1;“I’m a chili enthusiast.”;positive;NA;NA;Graduated High-school;252732;1776676299598;1776676046866;female;“Their food is meant to be really spicy.”;at-issue-explicit;10;food;english;“What kinds of food do you like the most?”;“Are you going to try the new restaurant in town?”;69de87934fb33f7490a8f178;69e5e8f195326c3c77a1a518;69e5297ed748f0b4dc9f5f71;7;4372;5
3952;NA;35;“Nice, I love spicy food as well—I’d definitely want to try it!”;positive;;n/a;1;NA;NA;NA;NA;Graduated High-school;252732;1776676299598;1776676046866;female;NA;NA;10;food;english;NA;NA;69de87934fb33f7490a8f178;69e5e8f195326c3c77a1a518;69e5297ed748f0b4dc9f5f71;NA;1900;NA
3952;NA;35;NA;NA;;n/a;6;“As someone who prefers short books, I love finding new releases to read.”;negative;NA;NA;Graduated High-school;252732;1776676299598;1776676046866;female;“It’s 600 pages long.”;no-longer-at-issue;7;books;english;“What kind of books do you like to read?”;“Have you read the new book that just came out?”;69de87934fb33f7490a8f178;69e5e8f195326c3c77a1a518;69e5297ed748f0b4dc9f5f71;6;3712;6
3952;NA;35;“Nice, I’ve been meaning to read the book too!”;positive;;n/a;6;NA;NA;NA;NA;Graduated High-school;252732;1776676299598;1776676046866;female;NA;NA;7;books;english;NA;NA;69de87934fb33f7490a8f178;69e5e8f195326c3c77a1a518;69e5297ed748f0b4dc9f5f71;NA;1731;NA
3952;NA;35;NA;NA;NA;n/a;control;NA;NA;TRUE;Knitting sweaters;Graduated High-school;252732;1776676299598;1776676046866;female;NA;NA;c8;knitting;english;NA;NA;69de87934fb33f7490a8f178;69e5e8f195326c3c77a1a518;69e5297ed748f0b4dc9f5f71;NA;1504;7
3952;NA;35;NA;NA;;n/a;control;“I like to knit my own sweaters.”;NA;NA;NA;Graduated High-school;252732;1776676299598;1776676046866;female;“Almost every day in winter.”;NA;c8;knitting;english;“What kind of stuff do you like to knit?”;“Do you wear your own sweaters then?”;69de87934fb33f7490a8f178;69e5e8f195326c3c77a1a518;69e5297ed748f0b4dc9f5f71;7;4869;7
3952;NA;35;“Wow, it must be nice to wear something you made yourself.”;positive;;n/a;control;NA;NA;NA;NA;Graduated High-school;252732;1776676299598;1776676046866;female;NA;NA;c8;knitting;english;NA;NA;69de87934fb33f7490a8f178;69e5e8f195326c3c77a1a518;69e5297ed748f0b4dc9f5f71;NA;7598;NA
3952;NA;35;NA;NA;;n/a;5;“As a skier, it’s my favourite place to be.”;positive;NA;NA;Graduated High-school;252732;1776676299598;1776676046866;female;“There’s lots of fresh snow.”;no-longer-at-issue;2;the mountains;english;“What do you love about the mountains?”;“Are you going to the mountains this week?”;69de87934fb33f7490a8f178;69e5e8f195326c3c77a1a518;69e5297ed748f0b4dc9f5f71;1;4893;8
3952;NA;35;“Ah, I’m no fan of snow either - maybe we’ll wait for it to melt first!”;negative;;n/a;5;NA;NA;NA;NA;Graduated High-school;252732;1776676299598;1776676046866;female;NA;NA;2;the mountains;english;NA;NA;69de87934fb33f7490a8f178;69e5e8f195326c3c77a1a518;69e5297ed748f0b4dc9f5f71;NA;5194;NA
3952;NA;35;NA;NA;;n/a;3;“My band has been rehearsing all week!”;positive;NA;NA;Graduated High-school;252732;1776676299598;1776676046866;female;“Friday is the band-only soundcheck day.”;at-issue-implicit;4;festivals;english;“Have you heard of the music festival this weekend?”;“Are you going to the festival on Friday?” ;69de87934fb33f7490a8f178;69e5e8f195326c3c77a1a518;69e5297ed748f0b4dc9f5f71;6;4264;9
3952;NA;35;“Right, I forgot it’s just the band soundcheck that day.”;neutral;;n/a;3;NA;NA;NA;NA;Graduated High-school;252732;1776676299598;1776676046866;female;NA;NA;4;festivals;english;NA;NA;69de87934fb33f7490a8f178;69e5e8f195326c3c77a1a518;69e5297ed748f0b4dc9f5f71;NA;5778;NA
3952;NA;35;NA;NA;;n/a;2;“I'm a bargain hunter.”;negative;NA;NA;Graduated High-school;252732;1776676299598;1776676046866;female;“It has very expensive paintings.”;at-issue-explicit;8;antique shopping;english;“What kind of antique shopping do you like to do?”;“Do you like the new antique store in town?”;69de87934fb33f7490a8f178;69e5e8f195326c3c77a1a518;69e5297ed748f0b4dc9f5f71;4;3902;10
3952;NA;35;“Perfect for you then! I’ve been meaning to check it out as well.”;positive;;n/a;2;NA;NA;NA;NA;Graduated High-school;252732;1776676299598;1776676046866;female;NA;NA;8;antique shopping;english;NA;NA;69de87934fb33f7490a8f178;69e5e8f195326c3c77a1a518;69e5297ed748f0b4dc9f5f71;NA;1613;NA
3913;NA;30;NA;NA;NA;;control;NA;NA;TRUE;Baking cake and pastries;Graduated High-school;566080;1776675665360;1776675099280;female;NA;NA;c2;baking;English ;NA;NA;69d5e22099adc2f11a1cb1e0;69e5e916e41a44b280d79a8a;69e5297ed748f0b4dc9f5f71;NA;7674;0
3913;NA;30;NA;NA;;;control;“I mostly bake cakes and pastries.”;NA;NA;NA;Graduated High-school;566080;1776675665360;1776675099280;female;“They all end up with my family and friends.”;NA;c2;baking;English ;“What do you like to bake?”;“Do you sell any of your baked goods?”;69d5e22099adc2f11a1cb1e0;69e5e916e41a44b280d79a8a;69e5297ed748f0b4dc9f5f71;1;30766;0
3913;NA;30;“They’re lucky to get them for free, then!”;negative;;;control;NA;NA;NA;NA;Graduated High-school;566080;1776675665360;1776675099280;female;NA;NA;c2;baking;English ;NA;NA;69d5e22099adc2f11a1cb1e0;69e5e916e41a44b280d79a8a;69e5297ed748f0b4dc9f5f71;NA;9618;NA
3913;NA;30;NA;NA;;;6;“As someone who prefers short books, I love finding new releases to read.”;negative;NA;NA;Graduated High-school;566080;1776675665360;1776675099280;female;“It’s 600 pages long.”;no-longer-at-issue;7;books;English ;“What kind of books do you like to read?”;“Have you read the new book that just came out?”;69d5e22099adc2f11a1cb1e0;69e5e916e41a44b280d79a8a;69e5297ed748f0b4dc9f5f71;1;22758;1
3913;NA;30;“Ah, 600 pages? Yeah, I think that’s too long for me as well.”;negative;;;6;NA;NA;NA;NA;Graduated High-school;566080;1776675665360;1776675099280;female;NA;NA;7;books;English ;NA;NA;69d5e22099adc2f11a1cb1e0;69e5e916e41a44b280d79a8a;69e5297ed748f0b4dc9f5f71;NA;11951;NA
3913;like me;30;NA;NA;;;8;“Night owls like me love to get a workout in every day.”;negative ;NA;NA;Graduated High-school;566080;1776675665360;1776675099280;female;“It starts at 7am.”;never-at-issue;9;the gym;English ;“When do you usually go to the gym?”;“Do you usually go to the gym’s pilates class?”;69d5e22099adc2f11a1cb1e0;69e5e916e41a44b280d79a8a;69e5297ed748f0b4dc9f5f71;1;10860;2
3913;NA;30;“Ah, yeah, 7am is way too early for me—I definitely wouldn’t go either.”;negative;;;8;NA;NA;NA;NA;Graduated High-school;566080;1776675665360;1776675099280;female;NA;NA;9;the gym;English ;NA;NA;69d5e22099adc2f11a1cb1e0;69e5e916e41a44b280d79a8a;69e5297ed748f0b4dc9f5f71;NA;10449;NA
3913;NA;30;NA;NA;;;5;“As a skier, it’s my favourite place to be.”;positive;NA;NA;Graduated High-school;566080;1776675665360;1776675099280;female;“There’s lots of fresh snow.”;no-longer-at-issue;2;the mountains;English ;“What do you love about the mountains?”;“Are you going to the mountains this week?”;69d5e22099adc2f11a1cb1e0;69e5e916e41a44b280d79a8a;69e5297ed748f0b4dc9f5f71;7;12144;3
3913;NA;30;“Ah, I’m no fan of snow either - maybe we’ll wait for it to melt first!”;negative;;;5;NA;NA;NA;NA;Graduated High-school;566080;1776675665360;1776675099280;female;NA;NA;2;the mountains;English ;NA;NA;69d5e22099adc2f11a1cb1e0;69e5e916e41a44b280d79a8a;69e5297ed748f0b4dc9f5f71;NA;9897;NA
3913;NA;30;NA;NA;NA;;control;NA;NA;TRUE;Doing portrait photography;Graduated High-school;566080;1776675665360;1776675099280;female;NA;NA;c4;photography;English ;NA;NA;69d5e22099adc2f11a1cb1e0;69e5e916e41a44b280d79a8a;69e5297ed748f0b4dc9f5f71;NA;4140;4
3913;NA;30;NA;NA;;;control;“I mainly do portrait photography.”;NA;NA;NA;Graduated High-school;566080;1776675665360;1776675099280;female;“So far no one has paid me for it.”;NA;c4;photography;English ;“What sort of photography are you into?”;“Do you do photography professionally?”;69d5e22099adc2f11a1cb1e0;69e5e916e41a44b280d79a8a;69e5297ed748f0b4dc9f5f71;1;14244;4
3913;NA;30;“Oh, you should start charging for it if you’re serious about it!”;negative;;;control;NA;NA;NA;NA;Graduated High-school;566080;1776675665360;1776675099280;female;NA;NA;c4;photography;English ;NA;NA;69d5e22099adc2f11a1cb1e0;69e5e916e41a44b280d79a8a;69e5297ed748f0b4dc9f5f71;NA;5729;NA
3913;NA;30;NA;NA;;;4;“I just bought a new beach read.”;negative;NA;NA;Graduated High-school;566080;1776675665360;1776675099280;female;“It’s going to be windy.”;at-issue-implicit ;1;the beach;English ;“What do you like to do at the beach?”;“Will you be at the beach tomorrow?”;69d5e22099adc2f11a1cb1e0;69e5e916e41a44b280d79a8a;69e5297ed748f0b4dc9f5f71;1;11122;5
3913;NA;30;“Ah, yeah, with that wind I wouldn’t find the beach pleasant either.”;negative;;;4;NA;NA;NA;NA;Graduated High-school;566080;1776675665360;1776675099280;female;NA;NA;1;the beach;English ;NA;NA;69d5e22099adc2f11a1cb1e0;69e5e916e41a44b280d79a8a;69e5297ed748f0b4dc9f5f71;NA;8021;NA
3913;NA;30;NA;NA;;;2;“Anything mild, I can’t handle spicy food.”;negative;NA;NA;Graduated High-school;566080;1776675665360;1776675099280;female;“Their food is meant to be really spicy.”;at-issue-explicit;10;food;English ;“What kinds of food do you like the most?”;“Are you going to try the new restaurant in town?”;69d5e22099adc2f11a1cb1e0;69e5e916e41a44b280d79a8a;69e5297ed748f0b4dc9f5f71;1;11330;6
3913;NA;30;“Right, I forgot that it's meant to be really spicy.”;neutral;;;2;NA;NA;NA;NA;Graduated High-school;566080;1776675665360;1776675099280;female;NA;NA;10;food;English ;NA;NA;69d5e22099adc2f11a1cb1e0;69e5e916e41a44b280d79a8a;69e5297ed748f0b4dc9f5f71;NA;42175;NA
3913;NA;30;NA;NA;NA;;control;NA;NA;FALSE;Knitting gloves;Graduated High-school;566080;1776675665360;1776675099280;female;NA;NA;c8;knitting;English ;NA;NA;69d5e22099adc2f11a1cb1e0;69e5e916e41a44b280d79a8a;69e5297ed748f0b4dc9f5f71;NA;62236;7
3913;NA;30;NA;NA;;;control;“I like to knit my own sweaters.”;NA;NA;NA;Graduated High-school;566080;1776675665360;1776675099280;female;“Almost every day in winter.”;NA;c8;knitting;English ;“What kind of stuff do you like to knit?”;“Do you wear your own sweaters then?”;69d5e22099adc2f11a1cb1e0;69e5e916e41a44b280d79a8a;69e5297ed748f0b4dc9f5f71;1;8433;7
3913;NA;30;“That's impressive!”;neutral;;;control;NA;NA;NA;NA;Graduated High-school;566080;1776675665360;1776675099280;female;NA;NA;c8;knitting;English ;NA;NA;69d5e22099adc2f11a1cb1e0;69e5e916e41a44b280d79a8a;69e5297ed748f0b4dc9f5f71;NA;3345;NA
3913;NA;30;NA;NA;;;1;“I'm a long distance runner.”;positive;NA;NA;Graduated High-school;566080;1776675665360;1776675099280;female;“It’s a marathon.”;at-issue-explicit;3;running;English ;“What kind of running do you do?”;“Will you participate in the city run this weekend?”;69d5e22099adc2f11a1cb1e0;69e5e916e41a44b280d79a8a;69e5297ed748f0b4dc9f5f71;7;10058;8
3913;NA;30;“Nice, I’ve always wanted to try a marathon as well!”;positive;;;1;NA;NA;NA;NA;Graduated High-school;566080;1776675665360;1776675099280;female;NA;NA;3;running;English ;NA;NA;69d5e22099adc2f11a1cb1e0;69e5e916e41a44b280d79a8a;69e5297ed748f0b4dc9f5f71;NA;6820;NA
3913;NA;30;NA;NA;;;3;“My band has been rehearsing all week!”;positive;NA;NA;Graduated High-school;566080;1776675665360;1776675099280;female;“Friday is the band-only soundcheck day.”;at-issue-implicit;4;festivals;English ;“Have you heard of the music festival this weekend?”;“Are you going to the festival on Friday?” ;69d5e22099adc2f11a1cb1e0;69e5e916e41a44b280d79a8a;69e5297ed748f0b4dc9f5f71;1;10937;9
3913;NA;30;“Right, I forgot it’s just the band soundcheck that day.”;neutral;;;3;NA;NA;NA;NA;Graduated High-school;566080;1776675665360;1776675099280;female;NA;NA;4;festivals;English ;NA;NA;69d5e22099adc2f11a1cb1e0;69e5e916e41a44b280d79a8a;69e5297ed748f0b4dc9f5f71;NA;7769;NA
3913;too;30;NA;NA;;;7;“I always enjoy going to concerts with my friends who like classical concerts too!”;positive;NA;NA;Graduated High-school;566080;1776675665360;1776675099280;female;“It's a string quartet.”;never-at-issue;6;concerts;English ;“What kind of concerts do you like?”;“Are you going to the concert in the town hall on Saturday?”;69d5e22099adc2f11a1cb1e0;69e5e916e41a44b280d79a8a;69e5297ed748f0b4dc9f5f71;1;8268;10
3913;NA;30;“Oh, I didn’t realise it was a string quartet.”;neutral;;;7;NA;NA;NA;NA;Graduated High-school;566080;1776675665360;1776675099280;female;NA;NA;6;concerts;English ;NA;NA;69d5e22099adc2f11a1cb1e0;69e5e916e41a44b280d79a8a;69e5297ed748f0b4dc9f5f71;NA;7228;NA
3953;NA;43;NA;NA;NA;;control;NA;NA;TRUE;Baking cake and pastries;Graduated College;1306021;1776676299967;1776674993946;male;NA;NA;c2;baking;english;NA;NA;5e7072e5fb136c63e94f3fa4;69e5e8a6889cff63b5da14d5;69e5297ed748f0b4dc9f5f71;NA;2001;0
3953;NA;43;NA;NA;;;control;“I mostly bake cakes and pastries.”;NA;NA;NA;Graduated College;1306021;1776676299967;1776674993946;male;“They all end up with my family and friends.”;NA;c2;baking;english;“What do you like to bake?”;“Do you sell any of your baked goods?”;5e7072e5fb136c63e94f3fa4;69e5e8a6889cff63b5da14d5;69e5297ed748f0b4dc9f5f71;6;2987;0
3953;NA;43;“They’re lucky to get them for free, then!”;negative;;;control;NA;NA;NA;NA;Graduated College;1306021;1776676299967;1776674993946;male;NA;NA;c2;baking;english;NA;NA;5e7072e5fb136c63e94f3fa4;69e5e8a6889cff63b5da14d5;69e5297ed748f0b4dc9f5f71;NA;7700;NA
3953;NA;43;NA;NA;;;3;“I just bought a new chili sauce to try.”;positive;NA;NA;Graduated College;1306021;1776676299967;1776674993946;male;“Their food is meant to be really spicy.”;at-issue-implicit;10;food;english;“What kinds of food do you like the most?”;“Are you going to try the new restaurant in town?”;5e7072e5fb136c63e94f3fa4;69e5e8a6889cff63b5da14d5;69e5297ed748f0b4dc9f5f71;5;7449;1
3953;NA;43;“Nice, I love spicy food as well—I’d definitely want to try it!”;positive;;;3;NA;NA;NA;NA;Graduated College;1306021;1776676299967;1776674993946;male;NA;NA;10;food;english;NA;NA;5e7072e5fb136c63e94f3fa4;69e5e8a6889cff63b5da14d5;69e5297ed748f0b4dc9f5f71;NA;5934;NA
3953;like me;43;NA;NA;;;8;“Fangirls like me obviously know about the music festival.”;negative ;NA;NA;Graduated College;1306021;1776676299967;1776674993946;male;“Friday is the band-only soundcheck day.”;never-at-issue;4;festivals;english;“Have you heard of the music festival this weekend?”;“Are you going to the festival on Friday?” ;5e7072e5fb136c63e94f3fa4;69e5e8a6889cff63b5da14d5;69e5297ed748f0b4dc9f5f71;2;6701;2
3953;NA;43;“Well, I hope the rehearsal goes well! Sad that fans like me can’t be there too.”;positive;;;8;NA;NA;NA;NA;Graduated College;1306021;1776676299967;1776674993946;male;NA;NA;4;festivals;english;NA;NA;5e7072e5fb136c63e94f3fa4;69e5e8a6889cff63b5da14d5;69e5297ed748f0b4dc9f5f71;NA;7183;NA
3953;NA;43;NA;NA;;;1;“I love reading really long novels.”;positive;NA;NA;Graduated College;1306021;1776676299967;1776674993946;male;“It’s 600 pages long.”;at-issue-explicit;7;books;english;“What kind of books do you like to read?”;“Have you read the new book that just came out?”;5e7072e5fb136c63e94f3fa4;69e5e8a6889cff63b5da14d5;69e5297ed748f0b4dc9f5f71;4;6251;3
3953;NA;43;“Oh wow, that’s quite a long book.”;neutral;;;1;NA;NA;NA;NA;Graduated College;1306021;1776676299967;1776674993946;male;NA;NA;7;books;english;NA;NA;5e7072e5fb136c63e94f3fa4;69e5e8a6889cff63b5da14d5;69e5297ed748f0b4dc9f5f71;NA;3900;NA
3953;NA;43;NA;NA;NA;;control;NA;NA;TRUE;Doing portrait photography;Graduated College;1306021;1776676299967;1776674993946;male;NA;NA;c4;photography;english;NA;NA;5e7072e5fb136c63e94f3fa4;69e5e8a6889cff63b5da14d5;69e5297ed748f0b4dc9f5f71;NA;1736;4
3953;NA;43;NA;NA;;;control;“I mainly do portrait photography.”;NA;NA;NA;Graduated College;1306021;1776676299967;1776674993946;male;“So far no one has paid me for it.”;NA;c4;photography;english;“What sort of photography are you into?”;“Do you do photography professionally?”;5e7072e5fb136c63e94f3fa4;69e5e8a6889cff63b5da14d5;69e5297ed748f0b4dc9f5f71;1;8967;4
