submission_id;NAI_type;age;answerChoice;answerPolarity;comment;comments;condition;contextSentence;contextType;controlCorrect;controlResponse;education;experiment_duration;experiment_end_time;experiment_start_time;gender;indirectAnswer;informationStatus;itemID;itemName;languages;participantQuestion;polarQuestion;prolific_pid;prolific_session_id;prolific_study_id;rating;responseTime;trialNum
3945;;31;“They’re lucky to get them for free, then!”;negative;;;control;“I mostly bake cakes and pastries.”;;True;Baking cake and pastries;Graduated College;676842;1776675766119;1776675089277;female;“They all end up with my family and friends.”;;c2;baking;English;“What do you like to bake?”;“Do you sell any of your baked goods?”;69d76f04f4bfe448e73e73dc;69e5e90d2bec70977a149983;69e5297ed748f0b4dc9f5f71;1;4442;0
3945;too;31;“Ah, string quartets aren’t really for me either.”;negative;;;8;“I always enjoy going to concerts with my friends who like rock concerts too!” ;negative ;;;Graduated College;676842;1776675766119;1776675089277;female;“It's a string quartet.”;never-at-issue;6;concerts;English;“What kind of concerts do you like?”;“Are you going to the concert in the town hall on Saturday?”;69d76f04f4bfe448e73e73dc;69e5e90d2bec70977a149983;69e5297ed748f0b4dc9f5f71;1;15605;1
3945;;31;“Right, I forgot it’s just the band soundcheck that day.”;neutral;;;6;“As a huge fan of the headliner, I definitely have heard of it!”;negative;;;Graduated College;676842;1776675766119;1776675089277;female;“Friday is the band-only soundcheck day.”;no-longer-at-issue;4;festivals;English;“Have you heard of the music festival this weekend?”;“Are you going to the festival on Friday?” ;69d76f04f4bfe448e73e73dc;69e5e90d2bec70977a149983;69e5297ed748f0b4dc9f5f71;1;66396;2
3945;;31;“Oh wow, that’s quite a long book.”;neutral;;;4;“I usually look for something I can finish in a day.”;negative;;;Graduated College;676842;1776675766119;1776675089277;female;“It’s 600 pages long.”;at-issue-implicit ;7;books;English;“What kind of books do you like to read?”;“Have you read the new book that just came out?”;69d76f04f4bfe448e73e73dc;69e5e90d2bec70977a149983;69e5297ed748f0b4dc9f5f71;1;14371;3
3945;;31;“That’s amazing — performing on stage must be so exciting.”;positive;;;control;“I do tap dance every single Friday.”;;True;Tap dancing;Graduated College;676842;1776675766119;1776675089277;female;“Last winter we did one at our local theatre.”;;c6;dancing;English;“What kind of dancing do you do?”;“Wow, do you ever do performances?”;69d76f04f4bfe448e73e73dc;69e5e90d2bec70977a149983;69e5297ed748f0b4dc9f5f71;7;1868;4
3945;;31;“Ah, if it’s all expensive paintings, it’s not for me either then.”;negative;;;2;“I'm a bargain hunter.”;negative;;;Graduated College;676842;1776675766119;1776675089277;female;“It has very expensive paintings.”;at-issue-explicit;8;antique shopping;English;“What kind of antique shopping do you like to do?”;“Do you like the new antique store in town?”;69d76f04f4bfe448e73e73dc;69e5e90d2bec70977a149983;69e5297ed748f0b4dc9f5f71;1;13917;5
3945;;31;“Oh wow, that’s a big event. Maybe I’ll come by and watch!”;neutral;;;5;“As a marathon runner, I love exploring new trails in nature.”;positive;;;Graduated College;676842;1776675766119;1776675089277;female;“It’s a marathon.”;no-longer-at-issue;3;running;English;“What kind of running do you do?”;“Will you participate in the city run this weekend?”;69d76f04f4bfe448e73e73dc;69e5e90d2bec70977a149983;69e5297ed748f0b4dc9f5f71;7;8402;6
3945;;31;“I honestly enjoy both train and car rides a lot.” ;neutral;;;control;“I really hate flying.”;;True;Hating flying;Graduated College;676842;1776675766119;1776675089277;female;“I mainly drive myself.” ;;c9;travel;English;“What is your favourite mode of transport for travelling?”;“Do you take the train then instead?”;69d76f04f4bfe448e73e73dc;69e5e90d2bec70977a149983;69e5297ed748f0b4dc9f5f71;1;1824;7
3945;;31;“Nice, early classes like that are great—I’d go regularly too!”;positive;;;3;“I quite like to get there before it gets too busy.”;positive;;;Graduated College;676842;1776675766119;1776675089277;female;“It starts at 7am.”;at-issue-implicit;9;the gym;English;“When do you usually go to the gym?”;“Do you usually go to the gym’s pilates class?”;69d76f04f4bfe448e73e73dc;69e5e90d2bec70977a149983;69e5297ed748f0b4dc9f5f71;7;10756;8
3945;too;31;“Nice, I love spicy food as well—I’d definitely want to try it!”;positive;;;7;“I love the food my friends who love spicy food too are cooking.”;positive;;;Graduated College;676842;1776675766119;1776675089277;female;“Their food is meant to be really spicy.”;never-at-issue;10;food;English;“What kinds of food do you like the most?”;“Are you going to try the new restaurant in town?”;69d76f04f4bfe448e73e73dc;69e5e90d2bec70977a149983;69e5297ed748f0b4dc9f5f71;7;6991;9
3945;;31;“Ah, yeah, with that wind I wouldn’t find the beach pleasant either.”;negative;;;1;“I’m a surfer.”;positive;;;Graduated College;676842;1776675766119;1776675089277;female;“It’s going to be windy.”;at-issue-explicit;1;the beach;English;“What do you like to do at the beach?”;“Will you be at the beach tomorrow?”;69d76f04f4bfe448e73e73dc;69e5e90d2bec70977a149983;69e5297ed748f0b4dc9f5f71;1;10538;10
3946;;27;“Oh, do your friends and family have to pay for them?”;neutral;Everything was clear;I enjoyed completing this survey | I enjoyed completing this survey | I enjoyed completing this survey;control;“I mostly bake cakes and pastries.”;;True;Baking cake and pastries;Higher degree;730488;1776675828681;1776675098193;female;“They all end up with my family and friends.”;;c2;baking;English ;“What do you like to bake?”;“Do you sell any of your baked goods?”;69d5e9bc91feeaa37fc2899c;69e5e9155d2038852aa93a5f;69e5297ed748f0b4dc9f5f71;3;6697;0
3946;;27;“Ah, yeah, with that wind I wouldn’t find the beach pleasant either.”;negative;Everything is clear;I enjoyed completing this survey | I enjoyed completing this survey;6;“As a sunbather, I spend a lot of time there.”;negative;;;Higher degree;730488;1776675828681;1776675098193;female;“It’s going to be windy.”;no-longer-at-issue;1;the beach;English ;“What do you like to do at the beach?”;“Will you be at the beach tomorrow?”;69d5e9bc91feeaa37fc2899c;69e5e9155d2038852aa93a5f;69e5297ed748f0b4dc9f5f71;1;16443;1
3946;;27;“Ah, string quartets aren’t really for me either.”;negative;Very clear;I enjoyed completing this survey | I enjoyed completing this survey;1;“I like all classical concerts.”;positive;;;Higher degree;730488;1776675828681;1776675098193;female;“It's a string quartet.”;at-issue-explicit;6;concerts;English ;“What kind of concerts do you like?”;“Are you going to the concert in the town hall on Saturday?”;69d5e9bc91feeaa37fc2899c;69e5e9155d2038852aa93a5f;69e5297ed748f0b4dc9f5f71;4;14660;2
3946;;27;“Ah, if it’s band-only that day, then I guess I won’t be there on Friday either.”;negative;Very clear;I enjoyed completing this survey | I enjoyed completing this survey;4;“I’ve been listening to the headliner nonstop lately.”;negative;;;Higher degree;730488;1776675828681;1776675098193;female;“Friday is the band-only soundcheck day.”;at-issue-implicit ;4;festivals;English ;“Have you heard of the music festival this weekend?”;“Are you going to the festival on Friday?” ;69d5e9bc91feeaa37fc2899c;69e5e9155d2038852aa93a5f;69e5297ed748f0b4dc9f5f71;1;13862;3
3946;;27;“That’s amazing — performing on stage must be so exciting.”;positive;Very clear;I enjoyed completing this survey | I enjoyed completing this survey | I enjoyed completing this survey;control;“I do tap dance every single Friday.”;;True;Tap dancing;Higher degree;730488;1776675828681;1776675098193;female;“Last winter we did one at our local theatre.”;;c6;dancing;English ;“What kind of dancing do you do?”;“Wow, do you ever do performances?”;69d5e9bc91feeaa37fc2899c;69e5e9155d2038852aa93a5f;69e5297ed748f0b4dc9f5f71;1;4450;4
3946;;27;“Ah, super spicy food? Yeah, that would definitely put me off too.”;negative;Very clear;I enjoyed completing this survey | I enjoyed completing this survey;5;“As a chili enthusiast, I’m love trying new foods.”;positive;;;Higher degree;730488;1776675828681;1776675098193;female;“Their food is meant to be really spicy.”;no-longer-at-issue;10;food;English ;“What kinds of food do you like the most?”;“Are you going to try the new restaurant in town?”;69d5e9bc91feeaa37fc2899c;69e5e9155d2038852aa93a5f;69e5297ed748f0b4dc9f5f71;2;22595;5
3946;like me;27;“Nice, early classes like that are great—I’d go regularly too!”;positive;Clear;I enjoyed completing this survey | I enjoyed completing this survey;7;“Early birds like me love to get a workout in every day.”;positive;;;Higher degree;730488;1776675828681;1776675098193;female;“It starts at 7am.”;never-at-issue;9;the gym;English ;“When do you usually go to the gym?”;“Do you usually go to the gym’s pilates class?”;69d5e9bc91feeaa37fc2899c;69e5e9155d2038852aa93a5f;69e5297ed748f0b4dc9f5f71;4;15257;6
3946;;27;“I prefer driving as well!”;positive;It is clear;I enjoyed completing this survey | I enjoyed completing this survey | I enjoyed completing this survey;control;“I really hate flying.”;;True;Hating flying;Higher degree;730488;1776675828681;1776675098193;female;“I mainly drive myself.” ;;c9;travel;English ;“What is your favourite mode of transport for travelling?”;“Do you take the train then instead?”;69d5e9bc91feeaa37fc2899c;69e5e9155d2038852aa93a5f;69e5297ed748f0b4dc9f5f71;2;10000;7
3946;too;27;“Oh wow, that’s quite a long book.”;neutral;Clear;I enjoyed completing this survey | I enjoyed completing this survey;8;“I'm in a book club with my friends who also love short books.” ;negative ;;;Higher degree;730488;1776675828681;1776675098193;female;“It’s 600 pages long.”;never-at-issue;7;books;English ;“What kind of books do you like to read?”;“Have you read the new book that just came out?”;69d5e9bc91feeaa37fc2899c;69e5e9155d2038852aa93a5f;69e5297ed748f0b4dc9f5f71;4;15993;8
3946;;27;“Perfect for you then! I’ve been meaning to check it out as well.”;positive;Clear;I enjoyed completing this survey | I enjoyed completing this survey;3;“I’ve been hunting for some Monets and Renoirs lately.”;positive;;;Higher degree;730488;1776675828681;1776675098193;female;“It has very expensive paintings.”;at-issue-implicit;8;antique shopping;English ;“What kind of antique shopping do you like to do?”;“Do you like the new antique store in town?”;69d5e9bc91feeaa37fc2899c;69e5e9155d2038852aa93a5f;69e5297ed748f0b4dc9f5f71;3;9595;9
3946;;27;“Perfect, fresh snow sounds great to me too —see you there!”;positive;Clear;I enjoyed completing this survey | I enjoyed completing this survey;2;“I’m a rock climber.”;negative;;;Higher degree;730488;1776675828681;1776675098193;female;“There’s lots of fresh snow.”;at-issue-explicit;2;the mountains;English ;“What do you love about the mountains?”;“Are you going to the mountains this week?”;69d5e9bc91feeaa37fc2899c;69e5e9155d2038852aa93a5f;69e5297ed748f0b4dc9f5f71;3;10980;10
3949;;30;“Well, I would love to buy a pastry from you at some point!”;positive;;;control;“I mostly bake cakes and pastries.”;;True;Baking cake and pastries;Higher degree;347823;1776676022392;1776675674569;female;“They all end up with my family and friends.”;;c2;baking;english;“What do you like to bake?”;“Do you sell any of your baked goods?”;69de3977bd460340bd46fede;69e5e8ae11308d96a985167b;69e5297ed748f0b4dc9f5f71;1;2097;0
3949;like me;30;“True, it’s meant to snow that day, I forgot about that!”;neutral;;;7;“Skiers like me love spending entire days there!”;positive;;;Higher degree;347823;1776676022392;1776675674569;female;“There’s lots of fresh snow.”;never-at-issue;2;the mountains;english;“What do you love about the mountains?”;“Are you going to the mountains this week?”;69de3977bd460340bd46fede;69e5e8ae11308d96a985167b;69e5297ed748f0b4dc9f5f71;3;17458;1
3949;;30;“Well, if you don’t think they are too expensive, I’d love to go there together sometime!” ;neutral;;;2;“I'm a bargain hunter.”;negative;;;Higher degree;347823;1776676022392;1776675674569;female;“It has very expensive paintings.”;at-issue-explicit;8;antique shopping;english;“What kind of antique shopping do you like to do?”;“Do you like the new antique store in town?”;69de3977bd460340bd46fede;69e5e8ae11308d96a985167b;69e5297ed748f0b4dc9f5f71;4;11706;2
3949;too;30;“Nice, I love spicy food as well—I’d definitely want to try it!”;positive;;;8;“I love the food my friends who can’t handle spicy food either are cooking.”;negative ;;;Higher degree;347823;1776676022392;1776675674569;female;“Their food is meant to be really spicy.”;never-at-issue;10;food;english;“What kinds of food do you like the most?”;“Are you going to try the new restaurant in town?”;69de3977bd460340bd46fede;69e5e8ae11308d96a985167b;69e5297ed748f0b4dc9f5f71;6;7796;3
3949;;30;“Well, maybe one day they will start paying you for it!”;positive;;;control;“I mainly do portrait photography.”;;True;Doing portrait photography;Higher degree;347823;1776676022392;1776675674569;female;“So far no one has paid me for it.”;;c4;photography;english;“What sort of photography are you into?”;“Do you do photography professionally?”;69de3977bd460340bd46fede;69e5e8ae11308d96a985167b;69e5297ed748f0b4dc9f5f71;1;3214;4
3949;;30;“Right, windy conditions can make a difference.”;neutral;;;5;“As a surfer, I spend a lot of time there.”;positive;;;Higher degree;347823;1776676022392;1776675674569;female;“It’s going to be windy.”;no-longer-at-issue;1;the beach;english;“What do you like to do at the beach?”;“Will you be at the beach tomorrow?”;69de3977bd460340bd46fede;69e5e8ae11308d96a985167b;69e5297ed748f0b4dc9f5f71;1;8665;5
3949;;30;“Nice, early classes like that are great—I’d go regularly too!”;positive;;;6;“As a night owl, I really enjoy going outside of the rush hours.”;negative;;;Higher degree;347823;1776676022392;1776675674569;female;“It starts at 7am.”;no-longer-at-issue;9;the gym;english;“When do you usually go to the gym?”;“Do you usually go to the gym’s pilates class?”;69de3977bd460340bd46fede;69e5e8ae11308d96a985167b;69e5297ed748f0b4dc9f5f71;5;4111;6
3949;;30;“Wow, it must be nice to wear something you made yourself.”;positive;;;control;“I like to knit my own sweaters.”;;True;Knitting sweaters;Higher degree;347823;1776676022392;1776675674569;female;“Almost every day in winter.”;;c8;knitting;english;“What kind of stuff do you like to knit?”;“Do you wear your own sweaters then?”;69de3977bd460340bd46fede;69e5e8ae11308d96a985167b;69e5297ed748f0b4dc9f5f71;7;2151;7
3949;;30;“Sounds lovely, I’ll come hear the quartet too!”;positive;;;3;“I was raised on Mozart and Chopin.” ;positive;;;Higher degree;347823;1776676022392;1776675674569;female;“It's a string quartet.”;at-issue-implicit;6;concerts;english;“What kind of concerts do you like?”;“Are you going to the concert in the town hall on Saturday?”;69de3977bd460340bd46fede;69e5e8ae11308d96a985167b;69e5297ed748f0b4dc9f5f71;5;5859;8
3949;;30;“Nice, I’ve been meaning to read the book too!”;positive;;;1;“I love reading really long novels.”;positive;;;Higher degree;347823;1776676022392;1776675674569;female;“It’s 600 pages long.”;at-issue-explicit;7;books;english;“What kind of books do you like to read?”;“Have you read the new book that just came out?”;69de3977bd460340bd46fede;69e5e8ae11308d96a985167b;69e5297ed748f0b4dc9f5f71;6;3926;9
3949;;30;“Well, I’m not a professional like you, but I might come to watch you play!”;positive;;;4;“I love the online games when I’m bored.”;negative;;;Higher degree;347823;1776676022392;1776675674569;female;“It’s a six-hour match format.”;at-issue-implicit ;5;chess;english;“What do you enjoy about playing chess?”;“Are you entering the tournament this weekend?”;69de3977bd460340bd46fede;69e5e8ae11308d96a985167b;69e5297ed748f0b4dc9f5f71;6;3533;10
3947;;56;“Wow, that's impressive!”;neutral;;;control;“I grow my own vegetables.”;;True;Growing vegetables;Higher degree;908415;1776675932499;1776675024084;male;“I love to make vegetable soups with them.” ;;c1;gardening;English;“What kind of gardening do you like to do?”;“Do you cook using your own vegetables?”;69ac4a8252f08f66b05aa859;69e5e8c384c486bcd0eda0cc;69e5297ed748f0b4dc9f5f71;6;4252;0
3947;too;56;“Ah, string quartets aren’t really for me either.”;negative;;;8;“I always enjoy going to concerts with my friends who like rock concerts too!” ;negative ;;;Higher degree;908415;1776675932499;1776675024084;male;“It's a string quartet.”;never-at-issue;6;concerts;English;“What kind of concerts do you like?”;“Are you going to the concert in the town hall on Saturday?”;69ac4a8252f08f66b05aa859;69e5e8c384c486bcd0eda0cc;69e5297ed748f0b4dc9f5f71;3;111288;1
3947;;56;“Ah, I’m no fan of snow either - maybe we’ll wait for it to melt first!”;negative;;;5;“As a skier, it’s my favourite place to be.”;positive;;;Higher degree;908415;1776675932499;1776675024084;male;“There’s lots of fresh snow.”;no-longer-at-issue;2;the mountains;English;“What do you love about the mountains?”;“Are you going to the mountains this week?”;69ac4a8252f08f66b05aa859;69e5e8c384c486bcd0eda0cc;69e5297ed748f0b4dc9f5f71;2;14521;2
3947;;56;“Ah, if it’s band-only that day, then I guess I won’t be there on Friday either.”;negative;;;4;“I’ve been listening to the headliner nonstop lately.”;negative;;;Higher degree;908415;1776675932499;1776675024084;male;“Friday is the band-only soundcheck day.”;at-issue-implicit ;4;festivals;English;“Have you heard of the music festival this weekend?”;“Are you going to the festival on Friday?” ;69ac4a8252f08f66b05aa859;69e5e8c384c486bcd0eda0cc;69e5297ed748f0b4dc9f5f71;2;48859;3
3947;;56;“Really? What were the apps for?”;neutral;;;control;“I spend a lot of time working on new software.”;;True;Working on new software;Higher degree;908415;1776675932499;1776675024084;male;“I have made a few apps before.”;;c5;coding;English;“What kind of coding do you like to do?”;“Do you ever make your own apps?”;69ac4a8252f08f66b05aa859;69e5e8c384c486bcd0eda0cc;69e5297ed748f0b4dc9f5f71;7;5346;4
3947;;56;“Ah, six hours is too long for me too —maybe another match then.”;negative;;;1;“I’m a professional chess player.”;positive;;;Higher degree;908415;1776675932499;1776675024084;male;“It’s a six-hour match format.”;at-issue-explicit;5;chess;English;“What do you enjoy about playing chess?”;“Are you entering the tournament this weekend?”;69ac4a8252f08f66b05aa859;69e5e8c384c486bcd0eda0cc;69e5297ed748f0b4dc9f5f71;2;32191;5
3947;like me;56;“Ah, yeah, with that wind I wouldn’t find the beach pleasant either.”;negative;;;7;“Surfers like me are always at the beach.” ;positive;;;Higher degree;908415;1776675932499;1776675024084;male;“It’s going to be windy.”;never-at-issue;1;the beach;English;“What do you like to do at the beach?”;“Will you be at the beach tomorrow?”;69ac4a8252f08f66b05aa859;69e5e8c384c486bcd0eda0cc;69e5297ed748f0b4dc9f5f71;2;9690;6
3947;;56;“I honestly enjoy both train and car rides a lot.” ;neutral;;;control;“I really hate flying.”;;True;Hating flying;Higher degree;908415;1776675932499;1776675024084;male;“I mainly drive myself.” ;;c9;travel;English;“What is your favourite mode of transport for travelling?”;“Do you take the train then instead?”;69ac4a8252f08f66b05aa859;69e5e8c384c486bcd0eda0cc;69e5297ed748f0b4dc9f5f71;3;4951;7
3947;;56;“Ah, 600 pages? Yeah, I think that’s too long for me as well.”;negative;;;6;“As someone who prefers short books, I love finding new releases to read.”;negative;;;Higher degree;908415;1776675932499;1776675024084;male;“It’s 600 pages long.”;no-longer-at-issue;7;books;English;“What kind of books do you like to read?”;“Have you read the new book that just came out?”;69ac4a8252f08f66b05aa859;69e5e8c384c486bcd0eda0cc;69e5297ed748f0b4dc9f5f71;2;14798;8
3947;;56;“Oh, I see—it’s an early class.”;neutral;;;3;“I quite like to get there before it gets too busy.”;positive;;;Higher degree;908415;1776675932499;1776675024084;male;“It starts at 7am.”;at-issue-implicit;9;the gym;English;“When do you usually go to the gym?”;“Do you usually go to the gym’s pilates class?”;69ac4a8252f08f66b05aa859;69e5e8c384c486bcd0eda0cc;69e5297ed748f0b4dc9f5f71;6;9042;9
3947;;56;“Ah, a full marathon? Yeah, that’s probably too difficult for me as well.”;negative;;;2;“I'm just a beginner.”;negative;;;Higher degree;908415;1776675932499;1776675024084;male;“It’s a marathon.”;at-issue-explicit;3;running;English;“What kind of running do you do?”;“Will you participate in the city run this weekend?”;69ac4a8252f08f66b05aa859;69e5e8c384c486bcd0eda0cc;69e5297ed748f0b4dc9f5f71;2;7923;10
3948;;;“Wow, that's impressive!”;neutral;;;control;“I grow my own vegetables.”;;True;Growing vegetables;Higher degree;848182;1776675960526;1776675112344;male;“I love to make vegetable soups with them.” ;;c1;gardening;English ;“What kind of gardening do you like to do?”;“Do you cook using your own vegetables?”;69d8dabcecbe2865242af4b7;69e5e913bfb7d13f0c259498;69e5297ed748f0b4dc9f5f71;7;3246;0
3948;;;“Ah, six hours is too long for me too —maybe another match then.”;negative;;;4;“I love the online games when I’m bored.”;negative;;;Higher degree;848182;1776675960526;1776675112344;male;“It’s a six-hour match format.”;at-issue-implicit ;5;chess;English ;“What do you enjoy about playing chess?”;“Are you entering the tournament this weekend?”;69d8dabcecbe2865242af4b7;69e5e913bfb7d13f0c259498;69e5297ed748f0b4dc9f5f71;1;14112;1
3948;like me;;“Nice, early classes like that are great—I’d go regularly too!”;positive;;;7;“Early birds like me love to get a workout in every day.”;positive;;;Higher degree;848182;1776675960526;1776675112344;male;“It starts at 7am.”;never-at-issue;9;the gym;English ;“When do you usually go to the gym?”;“Do you usually go to the gym’s pilates class?”;69d8dabcecbe2865242af4b7;69e5e913bfb7d13f0c259498;69e5297ed748f0b4dc9f5f71;7;10032;2
3948;;;“Oh, I didn’t realise it was a string quartet.”;neutral;;;5;“As a classical concert enjoyer, I especially love concerts where I can discover new music.”;positive;;;Higher degree;848182;1776675960526;1776675112344;male;“It's a string quartet.”;no-longer-at-issue;6;concerts;English ;“What kind of concerts do you like?”;“Are you going to the concert in the town hall on Saturday?”;69d8dabcecbe2865242af4b7;69e5e913bfb7d13f0c259498;69e5297ed748f0b4dc9f5f71;1;8837;3
3948;;;“That’s amazing — performing on stage must be so exciting.”;positive;;;control;“I do tap dance every single Friday.”;;False;Ballroom dancing;Higher degree;848182;1776675960526;1776675112344;male;“Last winter we did one at our local theatre.”;;c6;dancing;English ;“What kind of dancing do you do?”;“Wow, do you ever do performances?”;69d8dabcecbe2865242af4b7;69e5e913bfb7d13f0c259498;69e5297ed748f0b4dc9f5f71;7;15536;4
3948;too;;“Nice, I love spicy food as well—I’d definitely want to try it!”;positive;;;8;“I love the food my friends who can’t handle spicy food either are cooking.”;negative ;;;Higher degree;848182;1776675960526;1776675112344;male;“Their food is meant to be really spicy.”;never-at-issue;10;food;English ;“What kinds of food do you like the most?”;“Are you going to try the new restaurant in town?”;69d8dabcecbe2865242af4b7;69e5e913bfb7d13f0c259498;69e5297ed748f0b4dc9f5f71;7;7349;5
3948;;;“Nice, I’ve always wanted to try a marathon as well!”;positive;;;3;“I love running for as many hours as I can.”;positive;;;Higher degree;848182;1776675960526;1776675112344;male;“It’s a marathon.”;at-issue-implicit;3;running;English ;“What kind of running do you do?”;“Will you participate in the city run this weekend?”;69d8dabcecbe2865242af4b7;69e5e913bfb7d13f0c259498;69e5297ed748f0b4dc9f5f71;7;10482;6
3948;;;“I prefer driving as well!”;positive;;;control;“I really hate flying.”;;True;Hating flying;Higher degree;848182;1776675960526;1776675112344;male;“I mainly drive myself.” ;;c9;travel;English ;“What is your favourite mode of transport for travelling?”;“Do you take the train then instead?”;69d8dabcecbe2865242af4b7;69e5e913bfb7d13f0c259498;69e5297ed748f0b4dc9f5f71;1;2735;7
3948;;;“Ah, 600 pages? Yeah, I think that’s too long for me as well.”;negative;;;2;“I prefer short books.”;negative;;;Higher degree;848182;1776675960526;1776675112344;male;“It’s 600 pages long.”;at-issue-explicit;7;books;English ;“What kind of books do you like to read?”;“Have you read the new book that just came out?”;69d8dabcecbe2865242af4b7;69e5e913bfb7d13f0c259498;69e5297ed748f0b4dc9f5f71;1;8349;8
3948;;;“Well, I hope the rehearsal goes well! Sad that fans like me can’t be there too.”;positive;;;1;“I’m playing guitar in one of the bands performing there.”;positive;;;Higher degree;848182;1776675960526;1776675112344;male;“Friday is the band-only soundcheck day.”;at-issue-explicit;4;festivals;English ;“Have you heard of the music festival this weekend?”;“Are you going to the festival on Friday?” ;69d8dabcecbe2865242af4b7;69e5e913bfb7d13f0c259498;69e5297ed748f0b4dc9f5f71;7;5668;9
3948;;;“Ah, yeah, with that wind I wouldn’t find the beach pleasant either.”;negative;;;6;“As a sunbather, I spend a lot of time there.”;negative;;;Higher degree;848182;1776675960526;1776675112344;male;“It’s going to be windy.”;no-longer-at-issue;1;the beach;English ;“What do you like to do at the beach?”;“Will you be at the beach tomorrow?”;69d8dabcecbe2865242af4b7;69e5e913bfb7d13f0c259498;69e5297ed748f0b4dc9f5f71;1;6034;10
3910;;20;“Oh cool, landscapes can be very peaceful.”;neutral;;;control;“I like to paint with watercolours.”;;True;Painting with watercolours;Graduated High-school;700159;1776671773505;1776671073346;female;“I usually paint landscapes.”;;c3;painting;English, Punjabi;“What colours do you paint with?”;“Do you paint portraits?”;69740e0f44d57fec690581aa;69e5d921b4238ba5147d02ea;69e5297ed748f0b4dc9f5f71;2;5559;0
3910;;20;“Oh, I see—it’s an early class.”;neutral;;;5;“As an early bird, I really enjoy going outside of the rush hours.”;positive;;;Graduated High-school;700159;1776671773505;1776671073346;female;“It starts at 7am.”;no-longer-at-issue;9;the gym;English, Punjabi;“When do you usually go to the gym?”;“Do you usually go to the gym’s pilates class?”;69740e0f44d57fec690581aa;69e5d921b4238ba5147d02ea;69e5297ed748f0b4dc9f5f71;5;36320;1
3910;like me;20;“Ah, yeah, with that wind I wouldn’t find the beach pleasant either.”;negative;;;8;“Sunbathers like me are always at the beach.”;negative ;;;Graduated High-school;700159;1776671773505;1776671073346;female;“It’s going to be windy.”;never-at-issue;1;the beach;English, Punjabi;“What do you like to do at the beach?”;“Will you be at the beach tomorrow?”;69740e0f44d57fec690581aa;69e5d921b4238ba5147d02ea;69e5297ed748f0b4dc9f5f71;2;16760;2
3910;too;20;“Nice, I’ve always wanted to try a marathon as well!”;positive;;;7;“I love running with my friends who are also marathon runners!”;positive;;;Graduated High-school;700159;1776671773505;1776671073346;female;“It’s a marathon.”;never-at-issue;3;running;English, Punjabi;“What kind of running do you do?”;“Will you participate in the city run this weekend?”;69740e0f44d57fec690581aa;69e5d921b4238ba5147d02ea;69e5297ed748f0b4dc9f5f71;5;47591;3
3910;;20;“That’s amazing — performing on stage must be so exciting.”;positive;;;control;“I do tap dance every single Friday.”;;True;Tap dancing;Graduated High-school;700159;1776671773505;1776671073346;female;“Last winter we did one at our local theatre.”;;c6;dancing;English, Punjabi;“What kind of dancing do you do?”;“Wow, do you ever do performances?”;69740e0f44d57fec690581aa;69e5d921b4238ba5147d02ea;69e5297ed748f0b4dc9f5f71;7;4012;4
3910;;20;“Oh, I didn’t realise it was a string quartet.”;neutral;;;4;“I was raised on Led Zeppelin and AC/DC.”;negative;;;Graduated High-school;700159;1776671773505;1776671073346;female;“It's a string quartet.”;at-issue-implicit ;6;concerts;English, Punjabi;“What kind of concerts do you like?”;“Are you going to the concert in the town hall on Saturday?”;69740e0f44d57fec690581aa;69e5d921b4238ba5147d02ea;69e5297ed748f0b4dc9f5f71;3;13835;5
3910;;20;“Right, I forgot that it's meant to be really spicy.”;neutral;;;6;“Although I’m someone who can’t handle spicy food, I love trying new foods.”;negative;;;Graduated High-school;700159;1776671773505;1776671073346;female;“Their food is meant to be really spicy.”;no-longer-at-issue;10;food;English, Punjabi;“What kinds of food do you like the most?”;“Are you going to try the new restaurant in town?”;69740e0f44d57fec690581aa;69e5d921b4238ba5147d02ea;69e5297ed748f0b4dc9f5f71;4;25165;6
3910;;20;“That's impressive!”;neutral;;;control;“I like to knit my own sweaters.”;;True;Knitting sweaters;Graduated High-school;700159;1776671773505;1776671073346;female;“Almost every day in winter.”;;c8;knitting;English, Punjabi;“What kind of stuff do you like to knit?”;“Do you wear your own sweaters then?”;69740e0f44d57fec690581aa;69e5d921b4238ba5147d02ea;69e5297ed748f0b4dc9f5f71;7;2978;7
3910;;20;“Oh wow, that’s quite a long book.”;neutral;;;1;“I love reading really long novels.”;positive;;;Graduated High-school;700159;1776671773505;1776671073346;female;“It’s 600 pages long.”;at-issue-explicit;7;books;English, Punjabi;“What kind of books do you like to read?”;“Have you read the new book that just came out?”;69740e0f44d57fec690581aa;69e5d921b4238ba5147d02ea;69e5297ed748f0b4dc9f5f71;6;14473;8
3910;;20;“True, it’s meant to snow that day, I forgot about that!”;neutral;;;3;“I just bought new skiing equipment.”;positive;;;Graduated High-school;700159;1776671773505;1776671073346;female;“There’s lots of fresh snow.”;at-issue-implicit;2;the mountains;English, Punjabi;“What do you love about the mountains?”;“Are you going to the mountains this week?”;69740e0f44d57fec690581aa;69e5d921b4238ba5147d02ea;69e5297ed748f0b4dc9f5f71;6;8402;9
3910;;20;“Ah, if it’s all expensive paintings, it’s not for me either then.”;negative;;;2;“I'm a bargain hunter.”;negative;;;Graduated High-school;700159;1776671773505;1776671073346;female;“It has very expensive paintings.”;at-issue-explicit;8;antique shopping;English, Punjabi;“What kind of antique shopping do you like to do?”;“Do you like the new antique store in town?”;69740e0f44d57fec690581aa;69e5d921b4238ba5147d02ea;69e5297ed748f0b4dc9f5f71;1;18989;10
3950;;30;“They’re lucky to get them for free, then!”;negative;;no | no | no;control;“I mostly bake cakes and pastries.”;;False;Baking sourdough bread;Higher degree;865768;1776676031232;1776675165464;female;“They all end up with my family and friends.”;;c2;baking;english;“What do you like to bake?”;“Do you sell any of your baked goods?”;69d564b64c23c8aa8e04adb0;69e5e9159d3335d39f9bb2a7;69e5297ed748f0b4dc9f5f71;1;3519;0
3950;too;30;“Nice, I love spicy food as well—I’d definitely want to try it!”;positive;;no | no;8;“I love the food my friends who can’t handle spicy food either are cooking.”;negative ;;;Higher degree;865768;1776676031232;1776675165464;female;“Their food is meant to be really spicy.”;never-at-issue;10;food;english;“What kinds of food do you like the most?”;“Are you going to try the new restaurant in town?”;69d564b64c23c8aa8e04adb0;69e5e9159d3335d39f9bb2a7;69e5297ed748f0b4dc9f5f71;7;20088;1
3950;;30;“Right, windy conditions can make a difference.”;neutral;;no | no;1;“I’m a surfer.”;positive;;;Higher degree;865768;1776676031232;1776675165464;female;“It’s going to be windy.”;at-issue-explicit;1;the beach;english;“What do you like to do at the beach?”;“Will you be at the beach tomorrow?”;69d564b64c23c8aa8e04adb0;69e5e9159d3335d39f9bb2a7;69e5297ed748f0b4dc9f5f71;1;33165;2
3950;;30;“Well, I hope the rehearsal goes well! Sad that fans like me can’t be there too.”;positive;;no | no;5;“As a guitarist in a band that’s playing it, I definitely have heard of it!”;positive;;;Higher degree;865768;1776676031232;1776675165464;female;“Friday is the band-only soundcheck day.”;no-longer-at-issue;4;festivals;english;“Have you heard of the music festival this weekend?”;“Are you going to the festival on Friday?” ;69d564b64c23c8aa8e04adb0;69e5e9159d3335d39f9bb2a7;69e5297ed748f0b4dc9f5f71;1;19360;3
3950;;30;“Well, maybe one day they will start paying you for it!”;positive;;no | no | no;control;“I mainly do portrait photography.”;;True;Doing portrait photography;Higher degree;865768;1776676031232;1776675165464;female;“So far no one has paid me for it.”;;c4;photography;english;“What sort of photography are you into?”;“Do you do photography professionally?”;69d564b64c23c8aa8e04adb0;69e5e9159d3335d39f9bb2a7;69e5297ed748f0b4dc9f5f71;1;5573;4
3950;;30;“Ah, I’m no fan of snow either - maybe we’ll wait for it to melt first!”;negative;;no | no;4;“I just bought new climbing gear.” ;negative;;;Higher degree;865768;1776676031232;1776675165464;female;“There’s lots of fresh snow.”;at-issue-implicit ;2;the mountains;english;“What do you love about the mountains?”;“Are you going to the mountains this week?”;69d564b64c23c8aa8e04adb0;69e5e9159d3335d39f9bb2a7;69e5297ed748f0b4dc9f5f71;1;12344;5
3950;;30;“Oh wow, that’s quite a long book.”;neutral;;no | no;3;“I love getting completely lost in huge stories.”;positive;;;Higher degree;865768;1776676031232;1776675165464;female;“It’s 600 pages long.”;at-issue-implicit;7;books;english;“What kind of books do you like to read?”;“Have you read the new book that just came out?”;69d564b64c23c8aa8e04adb0;69e5e9159d3335d39f9bb2a7;69e5297ed748f0b4dc9f5f71;1;10162;6
3950;;30;“That’s nice — I like the idea of just catching and releasing them.”;positive;;no | no | no;control;“I often go to the nearby lake.”;;True;Fishing at the nearby lake;Higher degree;865768;1776676031232;1776675165464;female;“I usually throw them back into the water.”;;c7;fishing;english;“Where do you like to go fishing?”;“Do you cook any of the fish you catch?”;69d564b64c23c8aa8e04adb0;69e5e9159d3335d39f9bb2a7;69e5297ed748f0b4dc9f5f71;1;3630;7
3950;;30;“Ah, if it’s all expensive paintings, it’s not for me either then.”;negative;;no | no;2;“I'm a bargain hunter.”;negative;;;Higher degree;865768;1776676031232;1776675165464;female;“It has very expensive paintings.”;at-issue-explicit;8;antique shopping;english;“What kind of antique shopping do you like to do?”;“Do you like the new antique store in town?”;69d564b64c23c8aa8e04adb0;69e5e9159d3335d39f9bb2a7;69e5297ed748f0b4dc9f5f71;1;10986;8
3950;;30;“Ah, yeah, 7am is way too early for me—I definitely wouldn’t go either.”;negative;;no | no;6;“As a night owl, I really enjoy going outside of the rush hours.”;negative;;;Higher degree;865768;1776676031232;1776675165464;female;“It starts at 7am.”;no-longer-at-issue;9;the gym;english;“When do you usually go to the gym?”;“Do you usually go to the gym’s pilates class?”;69d564b64c23c8aa8e04adb0;69e5e9159d3335d39f9bb2a7;69e5297ed748f0b4dc9f5f71;7;14572;9
3950;too;30;“Nice, I’ve always wanted to try a marathon as well!”;positive;;no | no;7;“I love running with my friends who are also marathon runners!”;positive;;;Higher degree;865768;1776676031232;1776675165464;female;“It’s a marathon.”;never-at-issue;3;running;english;“What kind of running do you do?”;“Will you participate in the city run this weekend?”;69d564b64c23c8aa8e04adb0;69e5e9159d3335d39f9bb2a7;69e5297ed748f0b4dc9f5f71;7;7816;10
3911;;28;“They’re lucky to get them for free, then!”;negative;;;control;“I mostly bake cakes and pastries.”;;True;Baking cake and pastries;Higher degree;599949;1776673908330;1776673308381;female;“They all end up with my family and friends.”;;c2;baking;English ;“What do you like to bake?”;“Do you sell any of your baked goods?”;69d4d7b4ecb76163ee4087b2;69e5e2074fcaaa4bd25ff1da;69e5297ed748f0b4dc9f5f71;1;5174;0
3911;;28;“Nice, I love spicy food as well—I’d definitely want to try it!”;positive;;;5;“As a chili enthusiast, I’m love trying new foods.”;positive;;;Higher degree;599949;1776673908330;1776673308381;female;“Their food is meant to be really spicy.”;no-longer-at-issue;10;food;English ;“What kinds of food do you like the most?”;“Are you going to try the new restaurant in town?”;69d4d7b4ecb76163ee4087b2;69e5e2074fcaaa4bd25ff1da;69e5297ed748f0b4dc9f5f71;7;22476;1
3911;;28;“Ah, yeah, with that wind I wouldn’t find the beach pleasant either.”;negative;;;3;"""I just bought a new surfboard.”";positive;;;Higher degree;599949;1776673908330;1776673308381;female;“It’s going to be windy.”;at-issue-implicit;1;the beach;English ;“What do you like to do at the beach?”;“Will you be at the beach tomorrow?”;69d4d7b4ecb76163ee4087b2;69e5e2074fcaaa4bd25ff1da;69e5297ed748f0b4dc9f5f71;1;10739;2
3911;;28;“Ah, if it’s all expensive paintings, it’s not for me either then.”;negative;;;6;“As a bargain hunter, I enjoy searching for unique pieces.”;negative;;;Higher degree;599949;1776673908330;1776673308381;female;“It has very expensive paintings.”;no-longer-at-issue;8;antique shopping;English ;“What kind of antique shopping do you like to do?”;“Do you like the new antique store in town?”;69d4d7b4ecb76163ee4087b2;69e5e2074fcaaa4bd25ff1da;69e5297ed748f0b4dc9f5f71;1;6770;3
3911;;28;“That’s amazing — performing on stage must be so exciting.”;positive;;;control;“I do tap dance every single Friday.”;;True;Tap dancing;Higher degree;599949;1776673908330;1776673308381;female;“Last winter we did one at our local theatre.”;;c6;dancing;English ;“What kind of dancing do you do?”;“Wow, do you ever do performances?”;69d4d7b4ecb76163ee4087b2;69e5e2074fcaaa4bd25ff1da;69e5297ed748f0b4dc9f5f71;7;19108;4
3911;;28;“Nice, early classes like that are great—I’d go regularly too!”;positive;;;1;“I'm an early bird!”;positive;;;Higher degree;599949;1776673908330;1776673308381;female;“It starts at 7am.”;at-issue-explicit;9;the gym;English ;“When do you usually go to the gym?”;“Do you usually go to the gym’s pilates class?”;69d4d7b4ecb76163ee4087b2;69e5e2074fcaaa4bd25ff1da;69e5297ed748f0b4dc9f5f71;7;11752;5
3911;;28;“Ah, a full marathon? Yeah, that’s probably too difficult for me as well.”;negative;;;4;“I recently started running during my work breaks.”;negative;;;Higher degree;599949;1776673908330;1776673308381;female;“It’s a marathon.”;at-issue-implicit ;3;running;English ;“What kind of running do you do?”;“Will you participate in the city run this weekend?”;69d4d7b4ecb76163ee4087b2;69e5e2074fcaaa4bd25ff1da;69e5297ed748f0b4dc9f5f71;7;7044;6
3911;;28;“I honestly enjoy both train and car rides a lot.” ;neutral;;;control;“I really hate flying.”;;True;Hating flying;Higher degree;599949;1776673908330;1776673308381;female;“I mainly drive myself.” ;;c9;travel;English ;“What is your favourite mode of transport for travelling?”;“Do you take the train then instead?”;69d4d7b4ecb76163ee4087b2;69e5e2074fcaaa4bd25ff1da;69e5297ed748f0b4dc9f5f71;1;14486;7
3911;;28;“Sounds lovely, I’ll come hear the quartet too!”;positive;;;2;“I like all rock concerts.”;negative;;;Higher degree;599949;1776673908330;1776673308381;female;“It's a string quartet.”;at-issue-explicit;6;concerts;English ;“What kind of concerts do you like?”;“Are you going to the concert in the town hall on Saturday?”;69d4d7b4ecb76163ee4087b2;69e5e2074fcaaa4bd25ff1da;69e5297ed748f0b4dc9f5f71;7;8124;8
3911;too;28;“Oh wow, that’s quite a long book.”;neutral;;;7;“I’m in a book club with my friends who also love reading really long novels.”;positive;;;Higher degree;599949;1776673908330;1776673308381;female;“It’s 600 pages long.”;never-at-issue;7;books;English ;“What kind of books do you like to read?”;“Have you read the new book that just came out?”;69d4d7b4ecb76163ee4087b2;69e5e2074fcaaa4bd25ff1da;69e5297ed748f0b4dc9f5f71;6;13639;9
3911;like me;28;“Ah, I’m no fan of snow either - maybe we’ll wait for it to melt first!”;negative;;;8;“Rock climbers like me love spending entire days there!”;negative ;;;Higher degree;599949;1776673908330;1776673308381;female;“There’s lots of fresh snow.”;never-at-issue;2;the mountains;English ;“What do you love about the mountains?”;“Are you going to the mountains this week?”;69d4d7b4ecb76163ee4087b2;69e5e2074fcaaa4bd25ff1da;69e5297ed748f0b4dc9f5f71;1;9896;10
3951;;28;“I think I prefer portraits, but landscapes are cool too.”;negative;;none | none | none;control;“I like to paint with watercolours.”;;True;Painting with watercolours;Graduated College;976980;1777194486296;1777193509316;male;“I usually paint landscapes.”;;c3;painting;englidh;“What colours do you paint with?”;“Do you paint portraits?”;69dcfed5a591156a4a147014;69e5e9235037bb5049f14276;69e5297ed748f0b4dc9f5f71;2;36169;0
3951;like me;28;“Ah, yeah, 7am is way too early for me—I definitely wouldn’t go either.”;negative;;none | none;7;“Early birds like me love to get a workout in every day.”;positive;;;Graduated College;976980;1777194486296;1777193509316;male;“It starts at 7am.”;never-at-issue;9;the gym;englidh;“When do you usually go to the gym?”;“Do you usually go to the gym’s pilates class?”;69dcfed5a591156a4a147014;69e5e9235037bb5049f14276;69e5297ed748f0b4dc9f5f71;2;13728;1
3951;;28;“Ah, yeah, with that wind I wouldn’t find the beach pleasant either.”;negative;;none | none;6;“As a sunbather, I spend a lot of time there.”;negative;;;Graduated College;976980;1777194486296;1777193509316;male;“It’s going to be windy.”;no-longer-at-issue;1;the beach;englidh;“What do you like to do at the beach?”;“Will you be at the beach tomorrow?”;69dcfed5a591156a4a147014;69e5e9235037bb5049f14276;69e5297ed748f0b4dc9f5f71;2;14360;2
3951;;28;“Ah, a full marathon? Yeah, that’s probably too difficult for me as well.”;negative;;none | none;5;“As a marathon runner, I love exploring new trails in nature.”;positive;;;Graduated College;976980;1777194486296;1777193509316;male;“It’s a marathon.”;no-longer-at-issue;3;running;englidh;“What kind of running do you do?”;“Will you participate in the city run this weekend?”;69dcfed5a591156a4a147014;69e5e9235037bb5049f14276;69e5297ed748f0b4dc9f5f71;4;11296;3
3951;;28;“That’s amazing — performing on stage must be so exciting.”;positive;;none | none | none;control;“I do tap dance every single Friday.”;;True;Tap dancing;Graduated College;976980;1777194486296;1777193509316;male;“Last winter we did one at our local theatre.”;;c6;dancing;englidh;“What kind of dancing do you do?”;“Wow, do you ever do performances?”;69dcfed5a591156a4a147014;69e5e9235037bb5049f14276;69e5297ed748f0b4dc9f5f71;3;7056;4
3951;;28;“Well, I’m not a professional like you, but I might come to watch you play!”;positive;;none | none;2;“I’m a very casual chess player.”;negative;;;Graduated College;976980;1777194486296;1777193509316;male;“It’s a six-hour match format.”;at-issue-explicit;5;chess;englidh;“What do you enjoy about playing chess?”;“Are you entering the tournament this weekend?”;69dcfed5a591156a4a147014;69e5e9235037bb5049f14276;69e5297ed748f0b4dc9f5f71;3;17288;5
3951;;28;“Oh, I didn’t realise it was a string quartet.”;neutral;;none | none;3;“I was raised on Mozart and Chopin.” ;positive;;;Graduated College;976980;1777194486296;1777193509316;male;“It's a string quartet.”;at-issue-implicit;6;concerts;englidh;“What kind of concerts do you like?”;“Are you going to the concert in the town hall on Saturday?”;69dcfed5a591156a4a147014;69e5e9235037bb5049f14276;69e5297ed748f0b4dc9f5f71;4;8072;6
3951;;28;“That’s nice — I like the idea of just catching and releasing them.”;positive;;none | none | none;control;“I often go to the nearby lake.”;;True;Fishing at the nearby lake;Graduated College;976980;1777194486296;1777193509316;male;“I usually throw them back into the water.”;;c7;fishing;englidh;“Where do you like to go fishing?”;“Do you cook any of the fish you catch?”;69dcfed5a591156a4a147014;69e5e9235037bb5049f14276;69e5297ed748f0b4dc9f5f71;1;6112;7
3951;like me;28;“Ah, if it’s all expensive paintings, it’s not for me either then.”;negative;;none | none;8;“Bargain hunters like me love searching for unique pieces.”;negative ;;;Graduated College;976980;1777194486296;1777193509316;male;“It has very expensive paintings.”;never-at-issue;8;antique shopping;englidh;“What kind of antique shopping do you like to do?”;“Do you like the new antique store in town?”;69dcfed5a591156a4a147014;69e5e9235037bb5049f14276;69e5297ed748f0b4dc9f5f71;3;5127;8
3951;;28;“Nice, I love spicy food as well—I’d definitely want to try it!”;positive;;none | none;4;“I love mashed potatoes and coleslaw.”;negative;;;Graduated College;976980;1777194486296;1777193509316;male;“Their food is meant to be really spicy.”;at-issue-implicit ;10;food;englidh;“What kinds of food do you like the most?”;“Are you going to try the new restaurant in town?”;69dcfed5a591156a4a147014;69e5e9235037bb5049f14276;69e5297ed748f0b4dc9f5f71;3;3760;9
3951;;28;“Ah, 600 pages? Yeah, I think that’s too long for me as well.”;negative;;none | none;1;“I love reading really long novels.”;positive;;;Graduated College;976980;1777194486296;1777193509316;male;“It’s 600 pages long.”;at-issue-explicit;7;books;englidh;“What kind of books do you like to read?”;“Have you read the new book that just came out?”;69dcfed5a591156a4a147014;69e5e9235037bb5049f14276;69e5297ed748f0b4dc9f5f71;3;15760;10
3912;;30;“I think I prefer portraits, but landscapes are cool too.”;negative;;;control;“I like to paint with watercolours.”;;True;Painting with watercolours;Higher degree;505855;1776675610839;1776675104984;female;“I usually paint landscapes.”;;c3;painting;English;“What colours do you paint with?”;“Do you paint portraits?”;69d5359d61fba1e40b987b5d;69e5e91c2758441c9ddffe4d;69e5297ed748f0b4dc9f5f71;5;7577;0
3912;;30;“Oh, I didn’t realise it was a string quartet.”;neutral;;;5;“As a classical concert enjoyer, I especially love concerts where I can discover new music.”;positive;;;Higher degree;505855;1776675610839;1776675104984;female;“It's a string quartet.”;no-longer-at-issue;6;concerts;English;“What kind of concerts do you like?”;“Are you going to the concert in the town hall on Saturday?”;69d5359d61fba1e40b987b5d;69e5e91c2758441c9ddffe4d;69e5297ed748f0b4dc9f5f71;4;11489;1
3912;;30;“Perfect, fresh snow sounds great to me too —see you there!”;positive;;;1;“I'm a skier.”;positive;;;Higher degree;505855;1776675610839;1776675104984;female;“There’s lots of fresh snow.”;at-issue-explicit;2;the mountains;English;“What do you love about the mountains?”;“Are you going to the mountains this week?”;69d5359d61fba1e40b987b5d;69e5e91c2758441c9ddffe4d;69e5297ed748f0b4dc9f5f71;7;6724;2
3912;;30;“Oh wow, that’s a big event. Maybe I’ll come by and watch!”;neutral;;;4;“I recently started running during my work breaks.”;negative;;;Higher degree;505855;1776675610839;1776675104984;female;“It’s a marathon.”;at-issue-implicit ;3;running;English;“What kind of running do you do?”;“Will you participate in the city run this weekend?”;69d5359d61fba1e40b987b5d;69e5e91c2758441c9ddffe4d;69e5297ed748f0b4dc9f5f71;7;6194;3
3912;;30;“Oh, you should start charging for it if you’re serious about it!”;negative;;;control;“I mainly do portrait photography.”;;True;Doing portrait photography;Higher degree;505855;1776675610839;1776675104984;female;“So far no one has paid me for it.”;;c4;photography;English;“What sort of photography are you into?”;“Do you do photography professionally?”;69d5359d61fba1e40b987b5d;69e5e91c2758441c9ddffe4d;69e5297ed748f0b4dc9f5f71;7;5977;4
3912;too;30;“Well, I’m not a professional like you, but I might come to watch you play!”;positive;;;7;“I enjoy playing against my friends who are also professional chess players.”;positive;;;Higher degree;505855;1776675610839;1776675104984;female;“It’s a six-hour match format.”;never-at-issue;5;chess;English;“What do you enjoy about playing chess?”;“Are you entering the tournament this weekend?”;69d5359d61fba1e40b987b5d;69e5e91c2758441c9ddffe4d;69e5297ed748f0b4dc9f5f71;5;6792;5
3912;;30;“Nice, I’ve been meaning to read the book too!”;positive;;;3;“I love getting completely lost in huge stories.”;positive;;;Higher degree;505855;1776675610839;1776675104984;female;“It’s 600 pages long.”;at-issue-implicit;7;books;English;“What kind of books do you like to read?”;“Have you read the new book that just came out?”;69d5359d61fba1e40b987b5d;69e5e91c2758441c9ddffe4d;69e5297ed748f0b4dc9f5f71;7;7442;6
3912;;30;“Very animal friendly!”;neutral;;;control;“I often go to the nearby lake.”;;True;Fishing at the nearby lake;Higher degree;505855;1776675610839;1776675104984;female;“I usually throw them back into the water.”;;c7;fishing;English;“Where do you like to go fishing?”;“Do you cook any of the fish you catch?”;69d5359d61fba1e40b987b5d;69e5e91c2758441c9ddffe4d;69e5297ed748f0b4dc9f5f71;1;4130;7
3912;;30;“I was also planning to go! Maybe I’ll see you there.”;positive;;;6;“As a sunbather, I spend a lot of time there.”;negative;;;Higher degree;505855;1776675610839;1776675104984;female;“It’s going to be windy.”;no-longer-at-issue;1;the beach;English;“What do you like to do at the beach?”;“Will you be at the beach tomorrow?”;69d5359d61fba1e40b987b5d;69e5e91c2758441c9ddffe4d;69e5297ed748f0b4dc9f5f71;5;5929;8
3912;too;30;“Nice, I love spicy food as well—I’d definitely want to try it!”;positive;;;8;“I love the food my friends who can’t handle spicy food either are cooking.”;negative ;;;Higher degree;505855;1776675610839;1776675104984;female;“Their food is meant to be really spicy.”;never-at-issue;10;food;English;“What kinds of food do you like the most?”;“Are you going to try the new restaurant in town?”;69d5359d61fba1e40b987b5d;69e5e91c2758441c9ddffe4d;69e5297ed748f0b4dc9f5f71;7;12552;9
3912;;30;“Right, I forgot it’s just the band soundcheck that day.”;neutral;;;2;“I’m really excited to see the headliner perform.”;negative;;;Higher degree;505855;1776675610839;1776675104984;female;“Friday is the band-only soundcheck day.”;at-issue-explicit;4;festivals;English;“Have you heard of the music festival this weekend?”;“Are you going to the festival on Friday?” ;69d5359d61fba1e40b987b5d;69e5e91c2758441c9ddffe4d;69e5297ed748f0b4dc9f5f71;2;12987;10
3952;;35;“That’s so cool! I would love to cook with my own veggies too.”;positive;;;control;“I grow my own vegetables.”;;True;Growing vegetables;Graduated High-school;252732;1776676299598;1776676046866;female;“I love to make vegetable soups with them.” ;;c1;gardening;english;“What kind of gardening do you like to do?”;“Do you cook using your own vegetables?”;69de87934fb33f7490a8f178;69e5e8f195326c3c77a1a518;69e5297ed748f0b4dc9f5f71;6;2424;0
3952;too;35;“Sounds lovely, I’ll come hear the quartet too!”;positive;;;8;“I always enjoy going to concerts with my friends who like rock concerts too!” ;negative ;;;Graduated High-school;252732;1776676299598;1776676046866;female;“It's a string quartet.”;never-at-issue;6;concerts;english;“What kind of concerts do you like?”;“Are you going to the concert in the town hall on Saturday?”;69de87934fb33f7490a8f178;69e5e8f195326c3c77a1a518;69e5297ed748f0b4dc9f5f71;6;5076;1
3952;;35;“I was also planning to go! Maybe I’ll see you there.”;positive;;;4;“I just bought a new beach read.”;negative;;;Graduated High-school;252732;1776676299598;1776676046866;female;“It’s going to be windy.”;at-issue-implicit ;1;the beach;english;“What do you like to do at the beach?”;“Will you be at the beach tomorrow?”;69de87934fb33f7490a8f178;69e5e8f195326c3c77a1a518;69e5297ed748f0b4dc9f5f71;2;4998;2
3952;like me;35;“Nice, early classes like that are great—I’d go regularly too!”;positive;;;7;“Early birds like me love to get a workout in every day.”;positive;;;Graduated High-school;252732;1776676299598;1776676046866;female;“It starts at 7am.”;never-at-issue;9;the gym;english;“When do you usually go to the gym?”;“Do you usually go to the gym’s pilates class?”;69de87934fb33f7490a8f178;69e5e8f195326c3c77a1a518;69e5297ed748f0b4dc9f5f71;7;4060;3
3952;;35;“Oh, you should start charging for it if you’re serious about it!”;negative;;;control;“I mainly do portrait photography.”;;True;Doing portrait photography;Graduated High-school;252732;1776676299598;1776676046866;female;“So far no one has paid me for it.”;;c4;photography;english;“What sort of photography are you into?”;“Do you do photography professionally?”;69de87934fb33f7490a8f178;69e5e8f195326c3c77a1a518;69e5297ed748f0b4dc9f5f71;1;2535;4
3952;;35;“Nice, I love spicy food as well—I’d definitely want to try it!”;positive;;;1;“I’m a chili enthusiast.”;positive;;;Graduated High-school;252732;1776676299598;1776676046866;female;“Their food is meant to be really spicy.”;at-issue-explicit;10;food;english;“What kinds of food do you like the most?”;“Are you going to try the new restaurant in town?”;69de87934fb33f7490a8f178;69e5e8f195326c3c77a1a518;69e5297ed748f0b4dc9f5f71;7;4372;5
3952;;35;“Nice, I’ve been meaning to read the book too!”;positive;;;6;“As someone who prefers short books, I love finding new releases to read.”;negative;;;Graduated High-school;252732;1776676299598;1776676046866;female;“It’s 600 pages long.”;no-longer-at-issue;7;books;english;“What kind of books do you like to read?”;“Have you read the new book that just came out?”;69de87934fb33f7490a8f178;69e5e8f195326c3c77a1a518;69e5297ed748f0b4dc9f5f71;6;3712;6
3952;;35;“Wow, it must be nice to wear something you made yourself.”;positive;;;control;“I like to knit my own sweaters.”;;True;Knitting sweaters;Graduated High-school;252732;1776676299598;1776676046866;female;“Almost every day in winter.”;;c8;knitting;english;“What kind of stuff do you like to knit?”;“Do you wear your own sweaters then?”;69de87934fb33f7490a8f178;69e5e8f195326c3c77a1a518;69e5297ed748f0b4dc9f5f71;7;1504;7
3952;;35;“Ah, I’m no fan of snow either - maybe we’ll wait for it to melt first!”;negative;;;5;“As a skier, it’s my favourite place to be.”;positive;;;Graduated High-school;252732;1776676299598;1776676046866;female;“There’s lots of fresh snow.”;no-longer-at-issue;2;the mountains;english;“What do you love about the mountains?”;“Are you going to the mountains this week?”;69de87934fb33f7490a8f178;69e5e8f195326c3c77a1a518;69e5297ed748f0b4dc9f5f71;1;4893;8
3952;;35;“Right, I forgot it’s just the band soundcheck that day.”;neutral;;;3;“My band has been rehearsing all week!”;positive;;;Graduated High-school;252732;1776676299598;1776676046866;female;“Friday is the band-only soundcheck day.”;at-issue-implicit;4;festivals;english;“Have you heard of the music festival this weekend?”;“Are you going to the festival on Friday?” ;69de87934fb33f7490a8f178;69e5e8f195326c3c77a1a518;69e5297ed748f0b4dc9f5f71;6;4264;9
3952;;35;“Perfect for you then! I’ve been meaning to check it out as well.”;positive;;;2;“I'm a bargain hunter.”;negative;;;Graduated High-school;252732;1776676299598;1776676046866;female;“It has very expensive paintings.”;at-issue-explicit;8;antique shopping;english;“What kind of antique shopping do you like to do?”;“Do you like the new antique store in town?”;69de87934fb33f7490a8f178;69e5e8f195326c3c77a1a518;69e5297ed748f0b4dc9f5f71;4;3902;10
3913;;30;“They’re lucky to get them for free, then!”;negative;;;control;“I mostly bake cakes and pastries.”;;True;Baking cake and pastries;Graduated High-school;566080;1776675665360;1776675099280;female;“They all end up with my family and friends.”;;c2;baking;English ;“What do you like to bake?”;“Do you sell any of your baked goods?”;69d5e22099adc2f11a1cb1e0;69e5e916e41a44b280d79a8a;69e5297ed748f0b4dc9f5f71;1;7674;0
3913;;30;“Ah, 600 pages? Yeah, I think that’s too long for me as well.”;negative;;;6;“As someone who prefers short books, I love finding new releases to read.”;negative;;;Graduated High-school;566080;1776675665360;1776675099280;female;“It’s 600 pages long.”;no-longer-at-issue;7;books;English ;“What kind of books do you like to read?”;“Have you read the new book that just came out?”;69d5e22099adc2f11a1cb1e0;69e5e916e41a44b280d79a8a;69e5297ed748f0b4dc9f5f71;1;22758;1
3913;like me;30;“Ah, yeah, 7am is way too early for me—I definitely wouldn’t go either.”;negative;;;8;“Night owls like me love to get a workout in every day.”;negative ;;;Graduated High-school;566080;1776675665360;1776675099280;female;“It starts at 7am.”;never-at-issue;9;the gym;English ;“When do you usually go to the gym?”;“Do you usually go to the gym’s pilates class?”;69d5e22099adc2f11a1cb1e0;69e5e916e41a44b280d79a8a;69e5297ed748f0b4dc9f5f71;1;10860;2
3913;;30;“Ah, I’m no fan of snow either - maybe we’ll wait for it to melt first!”;negative;;;5;“As a skier, it’s my favourite place to be.”;positive;;;Graduated High-school;566080;1776675665360;1776675099280;female;“There’s lots of fresh snow.”;no-longer-at-issue;2;the mountains;English ;“What do you love about the mountains?”;“Are you going to the mountains this week?”;69d5e22099adc2f11a1cb1e0;69e5e916e41a44b280d79a8a;69e5297ed748f0b4dc9f5f71;7;12144;3
3913;;30;“Oh, you should start charging for it if you’re serious about it!”;negative;;;control;“I mainly do portrait photography.”;;True;Doing portrait photography;Graduated High-school;566080;1776675665360;1776675099280;female;“So far no one has paid me for it.”;;c4;photography;English ;“What sort of photography are you into?”;“Do you do photography professionally?”;69d5e22099adc2f11a1cb1e0;69e5e916e41a44b280d79a8a;69e5297ed748f0b4dc9f5f71;1;4140;4
3913;;30;“Ah, yeah, with that wind I wouldn’t find the beach pleasant either.”;negative;;;4;“I just bought a new beach read.”;negative;;;Graduated High-school;566080;1776675665360;1776675099280;female;“It’s going to be windy.”;at-issue-implicit ;1;the beach;English ;“What do you like to do at the beach?”;“Will you be at the beach tomorrow?”;69d5e22099adc2f11a1cb1e0;69e5e916e41a44b280d79a8a;69e5297ed748f0b4dc9f5f71;1;11122;5
3913;;30;“Right, I forgot that it's meant to be really spicy.”;neutral;;;2;“Anything mild, I can’t handle spicy food.”;negative;;;Graduated High-school;566080;1776675665360;1776675099280;female;“Their food is meant to be really spicy.”;at-issue-explicit;10;food;English ;“What kinds of food do you like the most?”;“Are you going to try the new restaurant in town?”;69d5e22099adc2f11a1cb1e0;69e5e916e41a44b280d79a8a;69e5297ed748f0b4dc9f5f71;1;11330;6
3913;;30;“That's impressive!”;neutral;;;control;“I like to knit my own sweaters.”;;False;Knitting gloves;Graduated High-school;566080;1776675665360;1776675099280;female;“Almost every day in winter.”;;c8;knitting;English ;“What kind of stuff do you like to knit?”;“Do you wear your own sweaters then?”;69d5e22099adc2f11a1cb1e0;69e5e916e41a44b280d79a8a;69e5297ed748f0b4dc9f5f71;1;62236;7
3913;;30;“Nice, I’ve always wanted to try a marathon as well!”;positive;;;1;“I'm a long distance runner.”;positive;;;Graduated High-school;566080;1776675665360;1776675099280;female;“It’s a marathon.”;at-issue-explicit;3;running;English ;“What kind of running do you do?”;“Will you participate in the city run this weekend?”;69d5e22099adc2f11a1cb1e0;69e5e916e41a44b280d79a8a;69e5297ed748f0b4dc9f5f71;7;10058;8
3913;;30;“Right, I forgot it’s just the band soundcheck that day.”;neutral;;;3;“My band has been rehearsing all week!”;positive;;;Graduated High-school;566080;1776675665360;1776675099280;female;“Friday is the band-only soundcheck day.”;at-issue-implicit;4;festivals;English ;“Have you heard of the music festival this weekend?”;“Are you going to the festival on Friday?” ;69d5e22099adc2f11a1cb1e0;69e5e916e41a44b280d79a8a;69e5297ed748f0b4dc9f5f71;1;10937;9
3913;too;30;“Oh, I didn’t realise it was a string quartet.”;neutral;;;7;“I always enjoy going to concerts with my friends who like classical concerts too!”;positive;;;Graduated High-school;566080;1776675665360;1776675099280;female;“It's a string quartet.”;never-at-issue;6;concerts;English ;“What kind of concerts do you like?”;“Are you going to the concert in the town hall on Saturday?”;69d5e22099adc2f11a1cb1e0;69e5e916e41a44b280d79a8a;69e5297ed748f0b4dc9f5f71;1;8268;10
3953;;43;“They’re lucky to get them for free, then!”;negative;;;control;“I mostly bake cakes and pastries.”;;True;Baking cake and pastries;Graduated College;1306021;1776676299967;1776674993946;male;“They all end up with my family and friends.”;;c2;baking;english;“What do you like to bake?”;“Do you sell any of your baked goods?”;5e7072e5fb136c63e94f3fa4;69e5e8a6889cff63b5da14d5;69e5297ed748f0b4dc9f5f71;6;2001;0
3953;;43;“Nice, I love spicy food as well—I’d definitely want to try it!”;positive;;;3;“I just bought a new chili sauce to try.”;positive;;;Graduated College;1306021;1776676299967;1776674993946;male;“Their food is meant to be really spicy.”;at-issue-implicit;10;food;english;“What kinds of food do you like the most?”;“Are you going to try the new restaurant in town?”;5e7072e5fb136c63e94f3fa4;69e5e8a6889cff63b5da14d5;69e5297ed748f0b4dc9f5f71;5;7449;1
3953;like me;43;“Well, I hope the rehearsal goes well! Sad that fans like me can’t be there too.”;positive;;;8;“Fangirls like me obviously know about the music festival.”;negative ;;;Graduated College;1306021;1776676299967;1776674993946;male;“Friday is the band-only soundcheck day.”;never-at-issue;4;festivals;english;“Have you heard of the music festival this weekend?”;“Are you going to the festival on Friday?” ;5e7072e5fb136c63e94f3fa4;69e5e8a6889cff63b5da14d5;69e5297ed748f0b4dc9f5f71;2;6701;2
3953;;43;“Oh wow, that’s quite a long book.”;neutral;;;1;“I love reading really long novels.”;positive;;;Graduated College;1306021;1776676299967;1776674993946;male;“It’s 600 pages long.”;at-issue-explicit;7;books;english;“What kind of books do you like to read?”;“Have you read the new book that just came out?”;5e7072e5fb136c63e94f3fa4;69e5e8a6889cff63b5da14d5;69e5297ed748f0b4dc9f5f71;4;6251;3
3953;;43;“Well, maybe one day they will start paying you for it!”;positive;;;control;“I mainly do portrait photography.”;;True;Doing portrait photography;Graduated College;1306021;1776676299967;1776674993946;male;“So far no one has paid me for it.”;;c4;photography;english;“What sort of photography are you into?”;“Do you do photography professionally?”;5e7072e5fb136c63e94f3fa4;69e5e8a6889cff63b5da14d5;69e5297ed748f0b4dc9f5f71;1;1736;4
3953;like me;43;“Nice, early classes like that are great—I’d go regularly too!”;positive;;;7;“Early birds like me love to get a workout in every day.”;positive;;;Graduated College;1306021;1776676299967;1776674993946;male;“It starts at 7am.”;never-at-issue;9;the gym;english;“When do you usually go to the gym?”;“Do you usually go to the gym’s pilates class?”;5e7072e5fb136c63e94f3fa4;69e5e8a6889cff63b5da14d5;69e5297ed748f0b4dc9f5f71;7;5219;5
3953;;43;“Ah, I’m no fan of snow either - maybe we’ll wait for it to melt first!”;negative;;;5;“As a skier, it’s my favourite place to be.”;positive;;;Graduated College;1306021;1776676299967;1776674993946;male;“There’s lots of fresh snow.”;no-longer-at-issue;2;the mountains;english;“What do you love about the mountains?”;“Are you going to the mountains this week?”;5e7072e5fb136c63e94f3fa4;69e5e8a6889cff63b5da14d5;69e5297ed748f0b4dc9f5f71;6;2684;6
3953;;43;“I prefer driving as well!”;positive;;;control;“I really hate flying.”;;True;Hating flying;Graduated College;1306021;1776676299967;1776674993946;male;“I mainly drive myself.” ;;c9;travel;english;“What is your favourite mode of transport for travelling?”;“Do you take the train then instead?”;5e7072e5fb136c63e94f3fa4;69e5e8a6889cff63b5da14d5;69e5297ed748f0b4dc9f5f71;1;1947;7
3953;;43;“Ah, a full marathon? Yeah, that’s probably too difficult for me as well.”;negative;;;6;“As a beginner, I love exploring new routes.”;negative;;;Graduated College;1306021;1776676299967;1776674993946;male;“It’s a marathon.”;no-longer-at-issue;3;running;english;“What kind of running do you do?”;“Will you participate in the city run this weekend?”;5e7072e5fb136c63e94f3fa4;69e5e8a6889cff63b5da14d5;69e5297ed748f0b4dc9f5f71;2;3712;8
3953;;43;“Ah, string quartets aren’t really for me either.”;negative;;;4;“I was raised on Led Zeppelin and AC/DC.”;negative;;;Graduated College;1306021;1776676299967;1776674993946;male;“It's a string quartet.”;at-issue-implicit ;6;concerts;english;“What kind of concerts do you like?”;“Are you going to the concert in the town hall on Saturday?”;5e7072e5fb136c63e94f3fa4;69e5e8a6889cff63b5da14d5;69e5297ed748f0b4dc9f5f71;1;4598;9
3953;;43;“Right, windy conditions can make a difference.”;neutral;;;2;“I’m a sunbather.”;negative;;;Graduated College;1306021;1776676299967;1776674993946;male;“It’s going to be windy.”;at-issue-explicit;1;the beach;english;“What do you like to do at the beach?”;“Will you be at the beach tomorrow?”;5e7072e5fb136c63e94f3fa4;69e5e8a6889cff63b5da14d5;69e5297ed748f0b4dc9f5f71;3;2701;10
3954;;22;“I love landscapes, they’re my favourite paintings to have in my house!”;positive;;An interesting study | An interesting study | An interesting study;control;“I like to paint with watercolours.”;;True;Painting with watercolours;Higher degree;1498176;1776676688396;1776675190220;male;“I usually paint landscapes.”;;c3;painting;;“What colours do you paint with?”;“Do you paint portraits?”;67503701c4ef8958767a58d9;69e5e8b5f3f07a57ae63597d;69e5297ed748f0b4dc9f5f71;4;7014;0
3954;;22;“Nice, early classes like that are great—I’d go regularly too!”;positive;;An interesting study | An interesting study;4;“I like going after everyone else has already left.”;negative;;;Higher degree;1498176;1776676688396;1776675190220;male;“It starts at 7am.”;at-issue-implicit ;9;the gym;;“When do you usually go to the gym?”;“Do you usually go to the gym’s pilates class?”;67503701c4ef8958767a58d9;69e5e8b5f3f07a57ae63597d;69e5297ed748f0b4dc9f5f71;7;12354;1
3954;like me;22;“Ah, yeah, with that wind I wouldn’t find the beach pleasant either.”;negative;;An interesting study | An interesting study;8;“Sunbathers like me are always at the beach.”;negative ;;;Higher degree;1498176;1776676688396;1776675190220;male;“It’s going to be windy.”;never-at-issue;1;the beach;;“What do you like to do at the beach?”;“Will you be at the beach tomorrow?”;67503701c4ef8958767a58d9;69e5e8b5f3f07a57ae63597d;69e5297ed748f0b4dc9f5f71;6;3056;2
3954;too;22;“Ah, six hours is too long for me too —maybe another match then.”;negative;;An interesting study | An interesting study;7;“I enjoy playing against my friends who are also professional chess players.”;positive;;;Higher degree;1498176;1776676688396;1776675190220;male;“It’s a six-hour match format.”;never-at-issue;5;chess;;“What do you enjoy about playing chess?”;“Are you entering the tournament this weekend?”;67503701c4ef8958767a58d9;69e5e8b5f3f07a57ae63597d;69e5297ed748f0b4dc9f5f71;4;10594;3
3954;;22;“That’s really impressive, I’d love to build my own programs.”;positive;;An interesting study | An interesting study | An interesting study;control;“I spend a lot of time working on new software.”;;True;Working on new software;Higher degree;1498176;1776676688396;1776675190220;male;“I have made a few apps before.”;;c5;coding;;“What kind of coding do you like to do?”;“Do you ever make your own apps?”;67503701c4ef8958767a58d9;69e5e8b5f3f07a57ae63597d;69e5297ed748f0b4dc9f5f71;7;9376;4
3954;;22;“Ah, super spicy food? Yeah, that would definitely put me off too.”;negative;;An interesting study | An interesting study;5;“As a chili enthusiast, I’m love trying new foods.”;positive;;;Higher degree;1498176;1776676688396;1776675190220;male;“Their food is meant to be really spicy.”;no-longer-at-issue;10;food;;“What kinds of food do you like the most?”;“Are you going to try the new restaurant in town?”;67503701c4ef8958767a58d9;69e5e8b5f3f07a57ae63597d;69e5297ed748f0b4dc9f5f71;3;14269;5
3954;;22;“Ah, string quartets aren’t really for me either.”;negative;;An interesting study | An interesting study;3;“I was raised on Mozart and Chopin.” ;positive;;;Higher degree;1498176;1776676688396;1776675190220;male;“It's a string quartet.”;at-issue-implicit;6;concerts;;“What kind of concerts do you like?”;“Are you going to the concert in the town hall on Saturday?”;67503701c4ef8958767a58d9;69e5e8b5f3f07a57ae63597d;69e5297ed748f0b4dc9f5f71;4;5920;6
3954;;22;“I think I’d rather keep them and cook them.”;negative;;An interesting study | An interesting study | An interesting study;control;“I often go to the nearby lake.”;;True;Fishing at the nearby lake;Higher degree;1498176;1776676688396;1776675190220;male;“I usually throw them back into the water.”;;c7;fishing;;“Where do you like to go fishing?”;“Do you cook any of the fish you catch?”;67503701c4ef8958767a58d9;69e5e8b5f3f07a57ae63597d;69e5297ed748f0b4dc9f5f71;1;12753;7
3954;;22;“Ah, a full marathon? Yeah, that’s probably too difficult for me as well.”;negative;;An interesting study | An interesting study;2;“I'm just a beginner.”;negative;;;Higher degree;1498176;1776676688396;1776675190220;male;“It’s a marathon.”;at-issue-explicit;3;running;;“What kind of running do you do?”;“Will you participate in the city run this weekend?”;67503701c4ef8958767a58d9;69e5e8b5f3f07a57ae63597d;69e5297ed748f0b4dc9f5f71;4;11184;8
3954;;22;“Perfect, fresh snow sounds great to me too —see you there!”;positive;;An interesting study | An interesting study;6;“As a rock climber, it’s my favourite place to be.”;negative;;;Higher degree;1498176;1776676688396;1776675190220;male;“There’s lots of fresh snow.”;no-longer-at-issue;2;the mountains;;“What do you love about the mountains?”;“Are you going to the mountains this week?”;67503701c4ef8958767a58d9;69e5e8b5f3f07a57ae63597d;69e5297ed748f0b4dc9f5f71;5;14305;9
3954;;22;“Well, I hope the rehearsal goes well! Sad that fans like me can’t be there too.”;positive;;An interesting study | An interesting study;1;“I’m playing guitar in one of the bands performing there.”;positive;;;Higher degree;1498176;1776676688396;1776675190220;male;“Friday is the band-only soundcheck day.”;at-issue-explicit;4;festivals;;“Have you heard of the music festival this weekend?”;“Are you going to the festival on Friday?” ;67503701c4ef8958767a58d9;69e5e8b5f3f07a57ae63597d;69e5297ed748f0b4dc9f5f71;4;36960;10
3955;;63;“That’s so cool! I would love to cook with my own veggies too.”;positive;;;control;“I grow my own vegetables.”;;True;Growing vegetables;Graduated High-school;542858;1776678744668;1776678201810;female;“I love to make vegetable soups with them.” ;;c1;gardening;English;“What kind of gardening do you like to do?”;“Do you cook using your own vegetables?”;69830cb2e36240a467d1cd22;69e5f52f16f7eeee8f3ba040;69e5297ed748f0b4dc9f5f71;7;2791;0
3955;;63;“Well, I hope the rehearsal goes well! Sad that fans like me can’t be there too.”;positive;;;4;“I’ve been listening to the headliner nonstop lately.”;negative;;;Graduated High-school;542858;1776678744668;1776678201810;female;“Friday is the band-only soundcheck day.”;at-issue-implicit ;4;festivals;English;“Have you heard of the music festival this weekend?”;“Are you going to the festival on Friday?” ;69830cb2e36240a467d1cd22;69e5f52f16f7eeee8f3ba040;69e5297ed748f0b4dc9f5f71;4;12253;1
3955;;63;“Perfect, fresh snow sounds great to me too —see you there!”;positive;;;2;“I’m a rock climber.”;negative;;;Graduated High-school;542858;1776678744668;1776678201810;female;“There’s lots of fresh snow.”;at-issue-explicit;2;the mountains;English;“What do you love about the mountains?”;“Are you going to the mountains this week?”;69830cb2e36240a467d1cd22;69e5f52f16f7eeee8f3ba040;69e5297ed748f0b4dc9f5f71;5;11199;2
3955;;63;“Ah, 600 pages? Yeah, I think that’s too long for me as well.”;negative;;;6;“As someone who prefers short books, I love finding new releases to read.”;negative;;;Graduated High-school;542858;1776678744668;1776678201810;female;“It’s 600 pages long.”;no-longer-at-issue;7;books;English;“What kind of books do you like to read?”;“Have you read the new book that just came out?”;69830cb2e36240a467d1cd22;69e5f52f16f7eeee8f3ba040;69e5297ed748f0b4dc9f5f71;2;8966;3
3955;;63;“Oh, you should start charging for it if you’re serious about it!”;negative;;;control;“I mainly do portrait photography.”;;True;Doing portrait photography;Graduated High-school;542858;1776678744668;1776678201810;female;“So far no one has paid me for it.”;;c4;photography;English;“What sort of photography are you into?”;“Do you do photography professionally?”;69830cb2e36240a467d1cd22;69e5f52f16f7eeee8f3ba040;69e5297ed748f0b4dc9f5f71;1;4242;4
3955;;63;“Oh, I didn’t realise it was a string quartet.”;neutral;;;3;“I was raised on Mozart and Chopin.” ;positive;;;Graduated High-school;542858;1776678744668;1776678201810;female;“It's a string quartet.”;at-issue-implicit;6;concerts;English;“What kind of concerts do you like?”;“Are you going to the concert in the town hall on Saturday?”;69830cb2e36240a467d1cd22;69e5f52f16f7eeee8f3ba040;69e5297ed748f0b4dc9f5f71;5;11217;5
3955;;63;“Right, I forgot that it's meant to be really spicy.”;neutral;;;1;“I’m a chili enthusiast.”;positive;;;Graduated High-school;542858;1776678744668;1776678201810;female;“Their food is meant to be really spicy.”;at-issue-explicit;10;food;English;“What kinds of food do you like the most?”;“Are you going to try the new restaurant in town?”;69830cb2e36240a467d1cd22;69e5f52f16f7eeee8f3ba040;69e5297ed748f0b4dc9f5f71;6;14939;6
3955;;63;“That’s nice — I like the idea of just catching and releasing them.”;positive;;;control;“I often go to the nearby lake.”;;True;Fishing at the nearby lake;Graduated High-school;542858;1776678744668;1776678201810;female;“I usually throw them back into the water.”;;c7;fishing;English;“Where do you like to go fishing?”;“Do you cook any of the fish you catch?”;69830cb2e36240a467d1cd22;69e5f52f16f7eeee8f3ba040;69e5297ed748f0b4dc9f5f71;1;3973;7
3955;like me;63;“Ah, yeah, with that wind I wouldn’t find the beach pleasant either.”;negative;;;8;“Sunbathers like me are always at the beach.”;negative ;;;Graduated High-school;542858;1776678744668;1776678201810;female;“It’s going to be windy.”;never-at-issue;1;the beach;English;“What do you like to do at the beach?”;“Will you be at the beach tomorrow?”;69830cb2e36240a467d1cd22;69e5f52f16f7eeee8f3ba040;69e5297ed748f0b4dc9f5f71;3;7734;8
3955;;63;“Well, if you don’t think they are too expensive, I’d love to go there together sometime!” ;neutral;;;5;“As a collector of rare art pieces, I enjoy searching for unique pieces.”;positive;;;Graduated High-school;542858;1776678744668;1776678201810;female;“It has very expensive paintings.”;no-longer-at-issue;8;antique shopping;English;“What kind of antique shopping do you like to do?”;“Do you like the new antique store in town?”;69830cb2e36240a467d1cd22;69e5f52f16f7eeee8f3ba040;69e5297ed748f0b4dc9f5f71;4;10458;9
3955;like me;63;“Oh, I see—it’s an early class.”;neutral;;;7;“Early birds like me love to get a workout in every day.”;positive;;;Graduated High-school;542858;1776678744668;1776678201810;female;“It starts at 7am.”;never-at-issue;9;the gym;English;“When do you usually go to the gym?”;“Do you usually go to the gym’s pilates class?”;69830cb2e36240a467d1cd22;69e5f52f16f7eeee8f3ba040;69e5297ed748f0b4dc9f5f71;6;7149;10
